acc_x_axis_g,acc_y_axis_g,acc_z_axis_g,gyr_x_axis_deg/s,gyr_y_axis_deg/s,gyr_z_axis_deg/s
-0.293,0.682,0.541,12.317,-24.207,19.756
-0.366,0.684,0.483,12.927,-24.268,16.768
-0.378,0.675,0.461,13.659,-16.22,14.329
-0.343,0.678,0.458,13.415,-4.329,10.793
-0.282,0.673,0.399,14.329,5.427,5.732
-0.259,0.653,0.3,14.634,14.512,2.622
-0.261,0.648,0.286,13.476,24.756,1.098
-0.231,0.639,0.319,12.073,35.732,-1.22
-0.188,0.607,0.327,10.305,47.439,-3.537
-0.139,0.586,0.329,7.5,56.22,-6.585
-0.109,0.578,0.304,2.744,60.366,-11.28
-0.102,0.612,0.246,-4.634,61.098,-17.256
-0.114,0.693,0.204,-12.073,59.695,-22.378
-0.149,0.773,0.175,-17.5,55.915,-23.963
-0.18,0.822,0.178,-20.549,51.463,-23.171
-0.196,0.828,0.24,-22.073,48.415,-22.622
-0.223,0.809,0.296,-22.317,48.171,-24.939
-0.251,0.79,0.311,-22.317,50.427,-27.927
-0.279,0.79,0.35,-21.768,53.232,-27.744
-0.28,0.796,0.402,-19.695,52.073,-25.305
-0.274,0.792,0.446,-16.341,45.915,-20.183
-0.311,0.79,0.491,-12.317,37.195,-12.744
-0.379,0.803,0.523,-7.317,27.256,-5.366
-0.446,0.816,0.567,-2.988,15.61,0.854
-0.511,0.828,0.615,-0.793,2.744,5.427
-0.579,0.839,0.625,-0.671,-9.024,8.72
-0.629,0.852,0.613,-0.305,-18.963,13.049
-0.652,0.857,0.584,1.159,-29.451,17.866
-0.656,0.851,0.571,2.012,-38.78,23.415
-0.635,0.849,0.593,0.61,-44.39,28.963
-0.569,0.866,0.611,0.366,-47.317,32.988
-0.5,0.899,0.605,3.049,-47.866,35.976
-0.46,0.925,0.607,5.671,-45.854,36.524
-0.434,0.938,0.624,7.805,-43.598,34.268
-0.413,0.962,0.637,8.902,-42.134,31.89
-0.373,1.008,0.657,9.329,-42.927,28.72
-0.312,1.031,0.667,10.122,-46.951,23.659
-0.254,1.019,0.664,10.915,-50.671,17.805
-0.21,0.982,0.654,11.22,-49.695,14.329
-0.167,0.938,0.657,10.793,-43.598,13.232
-0.144,0.889,0.641,11.037,-37.134,10.976
-0.146,0.844,0.58,12.012,-31.098,9.634
-0.171,0.823,0.52,12.256,-23.537,11.646
-0.185,0.822,0.486,11.402,-14.39,14.756
-0.201,0.813,0.454,10.427,-4.817,16.89
-0.237,0.8,0.412,9.817,3.049,15.915
-0.254,0.791,0.385,9.39,9.39,12.805
-0.227,0.78,0.385,7.927,17.439,10.244
-0.182,0.77,0.393,7.317,25.488,6.098
-0.148,0.748,0.373,8.171,31.646,0.122
-0.127,0.716,0.331,8.049,37.317,-5.976
-0.093,0.688,0.307,8.78,43.232,-11.646
-0.041,0.666,0.293,10.183,47.744,-15.976
0.003,0.651,0.277,8.171,48.963,-18.11
0.022,0.626,0.258,5.244,45.732,-22.744
-0.02,0.608,0.207,1.22,41.585,-27.622
-0.083,0.63,0.184,-2.195,37.805,-29.878
-0.164,0.671,0.206,-6.524,37.622,-28.659
-0.258,0.686,0.206,-11.951,41.524,-28.78
-0.302,0.682,0.202,-15.0,43.72,-29.085
-0.302,0.698,0.19,-18.049,43.171,-24.39
-0.299,0.714,0.193,-21.646,41.707,-19.085
-0.311,0.714,0.192,-22.561,38.171,-17.439
-0.337,0.735,0.184,-23.293,31.768,-15.244
-0.376,0.776,0.229,-23.537,23.598,-10.976
-0.405,0.794,0.305,-21.646,16.89,-6.524
-0.436,0.801,0.384,-19.512,16.28,-3.902
-0.477,0.817,0.458,-16.707,20.854,-3.476
-0.496,0.831,0.498,-12.012,26.646,-3.659
-0.501,0.841,0.508,-4.817,29.268,-0.488
-0.497,0.845,0.534,2.134,26.768,5.427
-0.514,0.846,0.581,6.768,20.305,13.354
-0.531,0.843,0.628,7.5,11.463,19.451
-0.527,0.863,0.67,7.622,0.732,20.732
-0.515,0.894,0.684,6.341,-12.317,22.012
-0.503,0.936,0.699,4.39,-25.915,23.963
-0.479,0.967,0.687,2.805,-35.915,23.72
-0.458,0.98,0.646,2.744,-40.732,22.256
-0.441,0.989,0.626,3.537,-42.683,21.098
-0.413,0.975,0.608,4.451,-41.951,19.512
-0.372,0.956,0.603,5.122,-37.805,16.707
-0.322,0.95,0.613,6.341,-32.805,12.683
-0.279,0.944,0.615,9.573,-29.39,9.024
-0.239,0.935,0.614,11.098,-27.134,7.134
-0.208,0.916,0.604,11.89,-26.89,5.305
-0.198,0.885,0.574,11.402,-27.805,5.183
-0.213,0.868,0.568,9.878,-31.22,8.841
-0.249,0.848,0.558,9.39,-36.341,14.695
-0.316,0.814,0.499,8.659,-37.683,19.634
-0.387,0.799,0.451,8.049,-35.488,20.976
-0.412,0.792,0.425,9.024,-32.073,20.244
-0.397,0.795,0.405,9.756,-28.659,18.841
-0.351,0.802,0.416,11.037,-25.0,16.951
-0.297,0.792,0.438,11.89,-21.098,14.817
-0.243,0.778,0.44,12.195,-18.354,10.183
-0.188,0.753,0.424,12.683,-15.183,5.305
-0.139,0.728,0.408,11.646,-9.756,2.134
-0.09,0.712,0.394,11.768,-4.512,0.427
-0.063,0.689,0.361,12.073,0.061,-0.793
-0.065,0.684,0.332,10.976,5.671,-3.78
-0.074,0.706,0.306,8.232,12.378,-8.049
-0.085,0.747,0.268,6.037,17.256,-12.012
-0.101,0.782,0.215,3.415,21.28,-15.671
-0.117,0.79,0.186,-2.012,27.5,-18.72
-0.119,0.786,0.195,-6.829,33.598,-20.854
-0.118,0.782,0.191,-11.341,36.463,-22.256
-0.127,0.767,0.196,-14.634,36.524,-23.659
-0.158,0.741,0.217,-16.159,35.0,-25.305
-0.209,0.725,0.232,-17.317,35.793,-25.732
-0.247,0.71,0.256,-18.171,39.634,-25.488
-0.249,0.697,0.288,-18.232,43.78,-24.878
-0.248,0.699,0.302,-18.78,46.707,-23.72
-0.265,0.718,0.316,-20.122,46.707,-24.146
-0.276,0.76,0.338,-20.427,42.622,-24.146
-0.285,0.812,0.375,-19.878,34.512,-21.402
-0.31,0.838,0.431,-19.695,24.817,-17.378
-0.353,0.831,0.481,-18.537,16.646,-13.902
-0.408,0.817,0.493,-15.488,11.585,-10.366
-0.455,0.817,0.499,-13.293,10.671,-6.463
-0.488,0.821,0.517,-8.72,9.207,-3.232
-0.507,0.831,0.527,-2.439,3.232,-0.366
-0.539,0.844,0.538,1.768,-2.805,4.39
-0.564,0.853,0.606,3.659,-4.817,10.793
-0.573,0.856,0.663,5.122,-6.829,14.878
-0.564,0.862,0.653,5.427,-12.805,15.793
-0.533,0.877,0.644,4.634,-24.085,15.122
-0.482,0.911,0.642,3.476,-40.488,16.524
-0.439,0.931,0.638,2.683,-59.329,21.951
-0.422,0.923,0.627,4.207,-75.122,27.195
-0.414,0.891,0.587,6.646,-81.707,29.024
-0.403,0.894,0.571,7.256,-75.427,28.902
-0.379,0.931,0.597,8.598,-59.268,27.256
-0.323,0.981,0.613,10.671,-40.671,23.049
-0.263,1.035,0.625,13.293,-27.561,15.976
-0.206,1.051,0.641,16.22,-21.402,10.427
-0.171,1.023,0.642,15.427,-17.988,8.476
-0.159,0.97,0.63,13.841,-14.695,7.683
-0.166,0.917,0.599,12.317,-10.305,5.976
-0.162,0.884,0.552,10.976,-7.5,4.329
-0.14,0.853,0.505,9.085,-7.439,4.39
-0.13,0.814,0.445,7.317,-9.146,4.329
-0.141,0.79,0.377,6.585,-9.329,2.683
-0.167,0.772,0.314,5.366,-3.354,-0.488
-0.19,0.754,0.272,4.207,10.0,-5.671
-0.171,0.733,0.234,3.11,26.585,-12.622
-0.127,0.71,0.221,2.561,41.402,-18.171
-0.092,0.677,0.224,-0.305,52.256,-20.732
-0.063,0.64,0.247,-2.866,57.317,-21.524
-0.052,0.6,0.249,-4.756,57.195,-21.037
-0.083,0.578,0.232,-6.951,54.695,-21.341
-0.142,0.577,0.221,-9.756,52.561,-23.476
-0.197,0.612,0.198,-11.646,49.695,-26.951
-0.216,0.666,0.166,-13.476,46.707,-28.963
-0.23,0.708,0.16,-15.61,44.268,-29.146
-0.238,0.732,0.189,-18.537,41.22,-27.744
-0.265,0.737,0.223,-20.854,36.22,-24.146
-0.282,0.726,0.264,-21.402,29.573,-20.305
-0.324,0.715,0.302,-21.402,24.573,-16.402
-0.382,0.72,0.349,-21.524,23.354,-13.841
-0.421,0.739,0.39,-19.146,24.268,-12.317
-0.444,0.774,0.427,-15.427,22.988,-9.634
-0.472,0.8,0.47,-11.89,18.476,-5.854
-0.509,0.815,0.52,-7.134,12.561,-0.976
-0.533,0.833,0.563,-1.159,7.134,3.963
-0.55,0.851,0.611,2.683,2.805,6.646
-0.565,0.854,0.68,6.159,-3.841,6.707
-0.562,0.849,0.705,9.817,-14.329,8.78
-0.544,0.852,0.712,12.134,-27.988,13.354
-0.539,0.845,0.703,13.659,-42.195,19.39
-0.549,0.847,0.675,15.61,-54.085,25.732
-0.552,0.875,0.64,16.707,-61.829,31.585
-0.537,0.906,0.595,15.366,-64.024,34.024
-0.492,0.94,0.584,12.622,-61.89,32.073
-0.425,0.999,0.584,9.634,-59.085,28.537
-0.363,1.057,0.599,7.622,-57.622,25.549
-0.306,1.075,0.613,7.622,-56.22,24.024
-0.263,1.044,0.609,7.805,-53.476,21.22
-0.238,0.995,0.602,8.476,-48.659,15.854
-0.204,0.952,0.569,10.305,-41.585,11.707
-0.153,0.94,0.537,11.524,-31.707,9.451
-0.106,0.933,0.51,11.28,-20.671,6.402
-0.066,0.914,0.483,9.329,-10.854,2.134
-0.038,0.898,0.475,6.22,-3.902,-2.683
-0.038,0.88,0.46,3.659,-1.646,-6.341
-0.058,0.847,0.417,-0.061,0.854,-7.805
-0.092,0.804,0.362,-3.537,5.244,-9.146
-0.142,0.757,0.31,-4.756,11.159,-12.5
-0.19,0.725,0.261,-4.512,18.963,-15.183
-0.196,0.702,0.239,-3.78,26.585,-15.732
-0.17,0.666,0.229,-2.561,33.11,-16.22
-0.151,0.624,0.229,-2.866,38.72,-17.744
-0.135,0.592,0.238,-3.476,43.354,-20.61
-0.142,0.585,0.244,-3.232,46.768,-23.841
-0.164,0.596,0.243,-4.085,49.207,-25.488
-0.195,0.603,0.252,-5.915,50.549,-25.061
-0.228,0.598,0.264,-7.5,50.244,-24.085
-0.266,0.604,0.272,-8.841,49.695,-22.317
-0.294,0.636,0.281,-11.22,48.72,-20.122
-0.298,0.674,0.293,-12.988,45.732,-17.5
-0.317,0.711,0.289,-15.244,41.585,-14.634
-0.347,0.758,0.284,-18.049,35.915,-13.537
-0.372,0.801,0.306,-19.512,28.049,-13.476
-0.393,0.843,0.339,-20.244,17.439,-11.524
-0.408,0.87,0.394,-20.122,5.122,-7.988
-0.443,0.863,0.447,-18.049,-2.988,-3.354
-0.488,0.843,0.483,-14.451,-3.293,1.89
-0.508,0.836,0.507,-8.293,0.671,4.268
-0.531,0.835,0.549,-0.793,3.902,4.268
-0.542,0.842,0.615,5.366,3.902,5.244
-0.53,0.848,0.695,9.939,-1.402,9.939
-0.528,0.855,0.744,11.585,-11.89,15.122
-0.517,0.862,0.737,11.037,-25.915,16.829
-0.503,0.878,0.703,10.122,-40.854,17.256
-0.489,0.914,0.668,10.061,-54.024,19.573
-0.462,0.94,0.653,11.707,-65.671,23.232
-0.438,0.924,0.641,13.354,-73.78,27.073
-0.427,0.886,0.615,14.085,-74.634,30.183
-0.412,0.878,0.594,12.195,-67.195,30.854
-0.367,0.918,0.582,10.061,-54.146,26.829
-0.307,0.982,0.564,8.841,-39.329,21.28
-0.243,1.042,0.552,8.354,-25.732,16.037
-0.193,1.058,0.539,8.537,-14.146,11.159
-0.165,1.025,0.533,7.195,-3.537,6.951
-0.14,0.974,0.527,5.671,3.537,4.024
-0.132,0.918,0.493,4.329,6.098,2.622
-0.142,0.872,0.461,3.78,4.817,2.805
-0.145,0.83,0.43,2.134,2.134,3.476
-0.144,0.793,0.414,-0.915,0.122,3.598
-0.154,0.754,0.385,-2.439,0.366,1.28
-0.178,0.726,0.33,-2.134,4.024,-3.78
-0.181,0.717,0.282,-1.463,10.854,-10.671
-0.158,0.708,0.265,1.098,19.512,-18.72
-0.13,0.691,0.269,2.927,31.707,-23.659
-0.109,0.662,0.313,3.11,43.902,-24.878
-0.096,0.612,0.353,3.78,49.756,-24.451
-0.119,0.547,0.358,3.171,50.549,-23.171
-0.142,0.526,0.353,1.768,47.622,-22.256
-0.167,0.556,0.323,0.122,41.89,-22.378
-0.215,0.613,0.276,-2.195,36.037,-23.537
-0.265,0.672,0.23,-5.244,33.598,-23.659
-0.284,0.726,0.211,-7.561,34.512,-22.439
-0.314,0.761,0.221,-9.451,39.207,-21.646
-0.348,0.772,0.255,-11.951,46.22,-20.793
-0.35,0.78,0.298,-12.988,48.78,-18.72
-0.357,0.778,0.319,-13.354,44.634,-16.037
-0.382,0.773,0.355,-14.329,38.537,-13.902
-0.398,0.783,0.385,-15.976,30.854,-12.622
-0.416,0.806,0.399,-17.012,20.305,-10.427
-0.443,0.819,0.404,-16.585,7.134,-6.341
-0.462,0.818,0.413,-14.329,-6.159,-1.463
-0.492,0.822,0.454,-10.915,-15.183,3.963
-0.523,0.833,0.507,-7.561,-17.622,9.329
-0.535,0.84,0.567,-3.11,-16.341,11.585
-0.54,0.855,0.596,1.037,-10.915,11.524
-0.53,0.884,0.625,5.305,-3.659,12.561
-0.498,0.914,0.672,7.927,-2.5,13.902
-0.502,0.926,0.689,10.061,-9.146,15.366
-0.512,0.912,0.68,12.378,-18.72,20.854
-0.501,0.911,0.667,13.902,-27.744,27.622
-0.5,0.904,0.661,13.78,-34.695,29.939
-0.468,0.888,0.638,11.707,-40.0,28.78
-0.409,0.912,0.618,8.171,-46.22,26.524
-0.359,0.972,0.6,5.183,-52.195,24.085
-0.314,1.0,0.578,4.085,-54.39,21.707
-0.289,0.999,0.558,5.122,-51.707,18.293
-0.286,0.972,0.543,6.768,-45.0,13.171
-0.262,0.936,0.512,8.171,-36.341,7.195
-0.209,0.906,0.483,9.512,-26.28,2.561
-0.166,0.876,0.468,9.268,-14.878,-1.037
