acc_x_axis_g,acc_y_axis_g,acc_z_axis_g,gyr_x_axis_deg/s,gyr_y_axis_deg/s,gyr_z_axis_deg/s
-0.52,-0.767,0.124,26.951,59.817,3.476
-0.621,-0.728,0.185,27.744,40.0,0.366
-0.71,-0.709,0.276,21.402,21.89,-1.951
-0.75,-0.656,0.384,12.134,4.024,-1.768
-0.74,-0.622,0.504,1.768,-12.866,-1.646
-0.706,-0.604,0.597,-7.927,-26.951,-2.561
-0.651,-0.604,0.636,-17.317,-35.732,-5.549
-0.59,-0.633,0.607,-25.854,-40.549,-9.451
-0.549,-0.692,0.553,-32.5,-43.415,-13.659
-0.534,-0.777,0.482,-35.488,-48.659,-17.805
-0.523,-0.879,0.418,-33.476,-56.402,-22.622
-0.511,-0.978,0.359,-29.451,-61.037,-27.5
-0.463,-1.064,0.32,-23.78,-61.585,-30.122
-0.38,-1.119,0.366,-18.537,-59.512,-34.024
-0.339,-1.119,0.381,-14.878,-54.024,-38.659
-0.323,-1.146,0.363,-10.122,-51.89,-37.988
-0.223,-1.2,0.376,-2.988,-53.598,-34.146
-0.122,-1.222,0.407,2.439,-49.573,-32.805
-0.065,-1.182,0.416,10.793,-39.451,-27.195
0.0,-1.171,0.425,15.0,-31.463,-18.598
0.058,-1.117,0.46,13.11,-26.585,-10.183
0.112,-1.032,0.502,9.451,-18.78,-4.085
0.151,-0.973,0.532,6.22,-4.451,0.0
0.167,-0.932,0.543,4.695,12.805,3.659
0.13,-0.908,0.525,2.744,29.39,6.707
0.049,-0.877,0.483,2.988,48.232,8.415
-0.022,-0.855,0.441,5.61,70.854,10.549
-0.08,-0.835,0.397,7.378,95.549,12.561
-0.166,-0.79,0.322,9.146,114.878,11.89
-0.245,-0.762,0.243,10.671,120.61,10.61
-0.298,-0.766,0.2,11.037,112.439,11.341
-0.346,-0.763,0.172,11.768,96.707,12.378
-0.384,-0.752,0.144,13.537,79.512,15.488
-0.394,-0.753,0.151,14.756,62.317,20.122
-0.419,-0.742,0.178,13.72,43.293,23.78
-0.496,-0.72,0.251,9.207,20.122,25.976
-0.585,-0.69,0.346,2.927,-2.195,26.463
-0.64,-0.686,0.434,-5.854,-21.829,25.793
-0.65,-0.687,0.499,-14.878,-39.268,21.463
-0.606,-0.713,0.536,-17.866,-50.305,10.488
-0.591,-0.808,0.505,-20.305,-54.451,-0.244
-0.649,-0.891,0.502,-25.976,-61.829,-5.671
-0.688,-0.903,0.53,-32.195,-72.866,-11.22
-0.651,-0.889,0.49,-36.402,-80.671,-20.122
-0.552,-0.916,0.426,-37.744,-86.098,-28.354
-0.452,-0.981,0.407,-35.305,-92.378,-35.183
-0.431,-1.04,0.383,-33.963,-96.22,-41.402
-0.43,-1.061,0.324,-33.11,-95.366,-44.451
-0.299,-1.089,0.287,-25.793,-88.841,-44.268
-0.092,-1.139,0.278,-15.061,-73.354,-40.427
0.005,-1.146,0.262,-7.5,-54.268,-30.976
0.067,-1.12,0.244,-2.988,-39.939,-18.476
0.204,-1.095,0.268,0.488,-27.256,-8.232
0.311,-1.059,0.357,0.61,-11.28,-0.183
0.307,-0.99,0.435,-2.5,5.061,6.951
0.267,-0.919,0.459,-5.61,19.39,10.732
0.213,-0.898,0.456,-6.89,34.695,12.378
0.104,-0.915,0.439,-8.049,50.244,15.305
-0.046,-0.922,0.412,-7.439,65.671,18.171
-0.171,-0.928,0.352,-4.024,82.012,18.293
-0.218,-0.948,0.266,2.744,96.951,17.073
-0.24,-0.972,0.18,11.646,106.524,16.22
-0.289,-0.976,0.138,19.207,98.476,17.378
-0.363,-0.935,0.111,24.634,76.585,16.037
-0.457,-0.887,0.083,28.902,55.488,12.805
-0.524,-0.854,0.128,28.841,36.524,11.341
-0.553,-0.798,0.28,20.854,20.0,8.11
-0.598,-0.707,0.439,9.207,8.78,1.402
-0.62,-0.647,0.545,-3.415,2.561,-3.78
-0.581,-0.625,0.613,-15.366,-0.61,-6.585
-0.496,-0.635,0.611,-23.171,-0.61,-10.61
-0.415,-0.691,0.545,-27.744,1.829,-16.159
-0.404,-0.763,0.451,-30.488,2.256,-21.707
-0.432,-0.841,0.381,-30.366,-2.805,-25.793
-0.457,-0.916,0.33,-27.866,-12.988,-26.524
-0.465,-0.962,0.319,-27.561,-29.756,-23.415
-0.416,-0.956,0.354,-28.171,-45.793,-20.854
-0.331,-0.938,0.36,-29.268,-54.756,-19.939
-0.222,-0.962,0.34,-29.817,-58.902,-17.195
-0.118,-1.037,0.332,-26.341,-53.902,-13.537
-0.04,-1.123,0.312,-18.415,-37.317,-9.024
0.031,-1.175,0.316,-10.427,-16.707,-2.195
0.087,-1.168,0.348,-8.171,-2.622,3.963
0.035,-1.092,0.37,-9.634,1.098,4.939
-0.111,-1.025,0.37,-12.134,-6.646,1.159
-0.248,-1.011,0.365,-15.976,-21.28,-5.976
-0.341,-0.992,0.332,-22.683,-34.024,-14.451
-0.409,-0.954,0.313,-31.159,-40.854,-22.927
-0.467,-0.928,0.331,-38.293,-44.024,-31.098
-0.521,-0.916,0.343,-44.268,-48.963,-40.061
-0.546,-0.916,0.34,-52.134,-60.122,-46.402
-0.524,-0.913,0.351,-61.707,-69.329,-47.317
-0.447,-0.886,0.37,-71.524,-65.671,-44.817
-0.265,-0.887,0.359,-76.463,-53.171,-36.951
-0.015,-0.926,0.33,-75.366,-32.866,-27.378
0.168,-0.959,0.302,-67.744,-7.378,-19.207
0.229,-0.994,0.233,-58.415,17.134,-10.732
0.19,-1.031,0.145,-50.671,33.232,-2.805
0.125,-1.054,0.068,-43.78,45.427,4.634
0.083,-1.072,0.018,-36.402,59.573,12.012
0.075,-1.075,-0.014,-26.585,78.902,18.841
0.07,-1.092,-0.012,-19.024,99.573,28.171
0.029,-1.091,0.015,-15.061,117.5,35.061
-0.051,-1.079,0.073,-10.854,134.39,36.098
-0.117,-1.078,0.121,-5.305,154.817,34.268
-0.12,-1.067,0.173,5.122,175.488,35.549
-0.094,-1.085,0.212,16.28,188.903,38.598
-0.102,-1.083,0.196,25.549,191.768,37.927
-0.192,-1.035,0.173,30.549,181.342,30.244
-0.321,-1.02,0.167,32.317,161.281,23.354
-0.406,-0.998,0.143,31.341,138.354,18.78
-0.438,-0.96,0.114,28.659,115.244,13.72
-0.456,-0.939,0.102,25.732,96.341,8.415
-0.46,-0.931,0.092,23.293,84.39,3.72
-0.427,-0.911,0.117,22.622,78.11,0.366
-0.392,-0.884,0.156,23.659,73.232,-2.561
-0.396,-0.873,0.177,23.049,66.159,-5.183
-0.427,-0.876,0.182,20.366,57.683,-8.232
-0.433,-0.878,0.187,17.317,49.878,-10.549
-0.392,-0.872,0.181,15.976,44.207,-12.805
-0.333,-0.882,0.163,15.671,37.134,-14.268
-0.302,-0.891,0.132,13.963,27.561,-16.22
-0.305,-0.909,0.106,11.463,19.024,-17.744
-0.299,-0.925,0.122,10.61,15.122,-17.317
-0.256,-0.932,0.159,12.134,15.488,-14.817
-0.22,-0.941,0.188,14.817,17.866,-11.951
-0.232,-0.947,0.21,17.195,19.939,-10.0
-0.273,-0.958,0.217,17.744,21.28,-7.866
-0.293,-0.976,0.232,18.232,23.841,-5.732
-0.284,-0.984,0.244,18.476,26.22,-3.78
-0.275,-0.98,0.215,17.439,25.61,-3.476
-0.28,-0.985,0.19,15.793,22.561,-3.293
-0.286,-1.001,0.184,13.232,19.451,-2.622
-0.292,-1.002,0.181,11.28,17.317,-2.5
-0.294,-1.003,0.188,10.793,16.098,-1.951
-0.294,-0.999,0.198,10.915,15.183,-1.22
-0.31,-0.989,0.203,9.878,13.171,-0.366
-0.328,-0.98,0.208,9.146,11.098,-0.488
-0.336,-0.976,0.198,8.354,9.207,-0.427
-0.331,-0.978,0.194,6.402,8.841,-0.549
-0.311,-0.972,0.201,5.0,9.939,-0.976
-0.295,-0.971,0.207,4.634,10.305,-0.549
-0.279,-0.971,0.209,4.695,10.427,0.183
-0.27,-0.968,0.202,4.878,12.317,0.793
-0.264,-0.965,0.195,6.646,14.878,2.744
-0.256,-0.966,0.189,8.537,16.037,4.268
-0.278,-0.961,0.173,9.268,14.634,5.0
-0.305,-0.963,0.169,9.939,12.561,6.463
-0.302,-0.969,0.181,11.037,10.854,8.415
-0.289,-0.964,0.181,12.317,10.305,8.476
-0.285,-0.965,0.178,13.476,9.878,9.085
-0.276,-0.974,0.181,13.11,8.963,10.366
-0.289,-0.964,0.191,10.732,7.073,11.524
-0.303,-0.946,0.206,8.537,4.085,12.988
-0.307,-0.936,0.229,6.646,0.61,15.488
-0.306,-0.926,0.258,5.061,-2.439,17.988
-0.304,-0.914,0.274,4.268,-3.963,19.085
-0.301,-0.918,0.268,4.756,-5.122,20.305
-0.299,-0.934,0.251,4.146,-6.707,22.439
-0.293,-0.938,0.247,2.012,-8.537,22.683
-0.306,-0.933,0.238,0.488,-10.793,20.366
-0.328,-0.931,0.211,-0.122,-14.512,17.683
-0.334,-0.94,0.189,-0.122,-18.171,15.976
-0.321,-0.956,0.191,-1.28,-21.585,14.695
-0.314,-0.955,0.188,-3.171,-26.098,13.598
-0.327,-0.951,0.192,-4.024,-31.402,12.866
-0.334,-0.953,0.212,-3.171,-32.988,11.524
-0.354,-0.95,0.21,-2.561,-31.402,10.793
-0.356,-0.953,0.211,-3.598,-33.476,10.61
-0.367,-0.947,0.217,-4.268,-38.171,8.232
-0.381,-0.941,0.208,-5.061,-43.171,5.305
-0.381,-0.943,0.201,-4.939,-47.683,4.756
-0.375,-0.956,0.223,-4.39,-54.268,7.195
-0.363,-0.952,0.244,-4.634,-63.902,8.476
-0.367,-0.93,0.224,-4.695,-71.829,7.561
-0.39,-0.931,0.203,-5.183,-75.366,8.171
-0.376,-0.945,0.208,-5.671,-76.22,9.695
-0.347,-0.943,0.22,-4.451,-71.159,9.512
-0.325,-0.957,0.222,-3.841,-61.098,8.659
-0.293,-0.963,0.236,-5.122,-52.683,8.78
-0.286,-0.959,0.265,-4.939,-51.037,11.22
-0.294,-0.948,0.264,-4.573,-59.512,13.293
-0.322,-0.933,0.256,-5.244,-73.659,13.963
-0.383,-0.925,0.266,-7.622,-88.415,14.451
-0.436,-0.915,0.264,-10.671,-103.72,15.488
-0.459,-0.922,0.261,-11.951,-114.024,13.415
-0.472,-0.934,0.246,-15.061,-111.585,14.573
-0.438,-0.957,0.254,-16.037,-103.72,15.976
-0.356,-0.981,0.268,-16.768,-95.122,14.024
-0.284,-0.983,0.274,-16.585,-86.22,16.768
-0.256,-0.991,0.292,-18.598,-80.976,20.854
-0.267,-0.974,0.285,-19.878,-83.171,24.451
-0.261,-0.966,0.257,-21.037,-90.793,29.939
-0.301,-0.962,0.228,-21.524,-100.183,35.305
-0.363,-0.95,0.209,-21.707,-111.402,39.39
-0.374,-0.928,0.181,-18.354,-123.293,40.488
-0.363,-0.917,0.144,-16.951,-126.524,37.012
-0.351,-0.913,0.161,-15.915,-126.585,32.805
-0.32,-0.91,0.221,-16.402,-126.463,28.354
-0.286,-0.895,0.243,-17.256,-128.293,22.561
-0.289,-0.898,0.267,-17.561,-132.866,17.378
-0.331,-0.921,0.309,-19.207,-138.11,13.171
-0.377,-0.943,0.337,-23.171,-138.537,11.159
-0.355,-0.93,0.335,-26.768,-136.89,9.878
-0.25,-0.91,0.325,-27.988,-129.512,5.183
-0.158,-0.915,0.309,-29.939,-114.878,-2.988
-0.147,-0.956,0.298,-36.402,-98.902,-13.354
-0.213,-0.995,0.302,-36.463,-81.28,-25.732
-0.282,-1.025,0.313,-28.232,-64.878,-35.976
-0.27,-1.064,0.41,-14.878,-51.768,-42.256
-0.245,-1.118,0.506,-0.244,-37.195,-40.122
-0.25,-1.138,0.479,9.634,-24.878,-35.305
-0.285,-1.086,0.339,15.061,-16.463,-33.841
-0.342,-1.03,0.223,19.39,-11.341,-38.902
-0.335,-1.008,0.199,27.5,-8.537,-44.573
-0.247,-1.016,0.228,39.329,-1.341,-42.622
-0.133,-1.013,0.259,49.878,12.134,-35.793
-0.063,-0.979,0.274,55.793,27.683,-31.707
-0.053,-0.955,0.29,56.098,41.098,-29.024
-0.079,-0.945,0.281,59.512,50.122,-26.28
-0.102,-0.946,0.275,62.378,54.085,-24.695
-0.122,-0.93,0.292,62.439,53.963,-22.683
-0.157,-0.912,0.337,59.207,47.439,-20.0
-0.208,-0.883,0.4,52.866,35.732,-20.122
-0.252,-0.837,0.46,39.085,15.244,-25.732
-0.281,-0.792,0.471,20.183,-9.512,-35.671
-0.322,-0.768,0.457,-0.244,-27.561,-46.524
-0.335,-0.774,0.53,-21.707,-44.207,-52.561
-0.252,-0.765,0.607,-40.976,-51.524,-57.866
-0.129,-0.75,0.617,-53.293,-45.61,-67.195
-0.037,-0.783,0.579,-56.037,-36.585,-77.256
-0.053,-0.843,0.526,-58.78,-34.207,-83.232
-0.172,-0.876,0.434,-64.024,-41.28,-83.232
-0.258,-0.911,0.351,-71.524,-59.634,-76.098
-0.22,-0.935,0.316,-78.415,-74.634,-66.098
-0.101,-0.943,0.315,-77.317,-69.207,-54.939
0.063,-0.985,0.298,-67.622,-44.695,-37.927
0.222,-1.059,0.287,-55.427,-11.89,-15.976
0.307,-1.104,0.262,-41.89,18.354,5.244
0.308,-1.108,0.215,-30.061,34.451,21.829
0.258,-1.093,0.172,-19.878,33.902,32.5
0.196,-1.06,0.137,-8.476,24.39,39.878
0.137,-1.04,0.125,1.951,12.866,44.939
0.089,-1.031,0.138,9.756,1.524,47.5
0.066,-1.02,0.159,15.976,-8.354,48.476
0.05,-0.996,0.168,20.488,-12.134,47.317
0.012,-0.976,0.171,22.256,-9.207,44.451
-0.018,-0.969,0.177,22.561,-2.378,40.549
-0.024,-0.983,0.177,23.72,6.768,36.646
-0.038,-0.995,0.185,24.878,17.073,33.293
-0.062,-1.001,0.233,26.707,26.28,29.939
-0.095,-0.994,0.313,29.695,30.488,26.646
-0.128,-0.984,0.378,31.402,27.561,23.78
-0.156,-0.975,0.394,28.841,18.963,19.207
-0.183,-0.96,0.366,23.841,10.122,11.768
-0.188,-0.959,0.321,20.549,6.402,4.573
-0.149,-0.984,0.305,21.646,11.037,-0.061
-0.075,-1.015,0.333,25.549,21.707,-1.524
-0.002,-1.029,0.38,28.293,35.0,-1.646
0.029,-1.005,0.408,28.841,49.878,-4.634
-0.004,-0.971,0.404,27.561,64.329,-9.085
-0.068,-0.954,0.388,23.293,73.841,-13.963
-0.134,-0.941,0.352,18.476,75.183,-18.963
-0.173,-0.951,0.321,15.854,68.598,-22.256
-0.186,-0.971,0.321,11.585,56.524,-22.134
-0.202,-0.968,0.346,8.476,44.207,-22.256
-0.218,-0.945,0.368,7.561,34.878,-22.134
-0.199,-0.933,0.384,7.256,28.476,-19.146
-0.136,-0.924,0.4,5.183,25.732,-15.793
-0.084,-0.911,0.403,2.988,27.683,-13.537
-0.068,-0.92,0.398,2.073,32.744,-11.28
-0.064,-0.931,0.405,2.988,40.305,-9.451
-0.049,-0.937,0.41,3.963,50.305,-6.463
-0.045,-0.936,0.392,4.634,58.049,-3.171
-0.063,-0.927,0.369,3.78,58.598,-1.28
-0.099,-0.919,0.355,1.585,53.049,-0.366
-0.159,-0.91,0.354,0.244,43.841,-0.488
-0.203,-0.917,0.365,-0.854,31.646,-0.915
-0.217,-0.926,0.373,-1.768,19.024,-1.524
-0.21,-0.929,0.363,-2.073,8.598,-2.561
-0.197,-0.939,0.348,-1.768,1.159,-3.72
-0.174,-0.947,0.329,-0.488,-2.988,-4.085
-0.155,-0.959,0.314,1.585,-3.415,-4.207
-0.151,-0.97,0.306,3.902,-1.159,-3.232
-0.141,-0.972,0.314,5.366,2.256,-1.22
-0.125,-0.962,0.333,5.488,6.829,0.244
-0.115,-0.943,0.354,4.573,10.549,1.341
-0.107,-0.936,0.374,3.476,11.402,2.805
-0.107,-0.932,0.396,1.829,9.817,3.537
-0.124,-0.928,0.399,0.305,7.378,3.232
-0.145,-0.934,0.39,-0.122,5.671,2.866
-0.146,-0.943,0.378,-0.305,5.183,3.049
-0.138,-0.952,0.371,-0.549,5.244,3.293
-0.136,-0.952,0.362,-0.793,5.915,3.476
-0.142,-0.951,0.364,-0.366,5.915,4.207
-0.144,-0.95,0.371,-0.122,5.976,4.817
-0.141,-0.945,0.365,-0.122,6.707,4.451
-0.142,-0.943,0.355,0.183,7.134,4.085
-0.142,-0.95,0.356,1.098,6.402,4.573
-0.14,-0.954,0.358,2.012,5.0,5.061
-0.141,-0.954,0.345,2.866,3.598,5.183
-0.143,-0.958,0.331,3.659,1.585,5.671
-0.137,-0.961,0.329,4.756,0.427,6.951
-0.13,-0.962,0.34,5.305,0.549,8.598
-0.131,-0.953,0.358,4.39,0.427,9.817
-0.138,-0.937,0.382,2.195,-0.61,9.634
-0.148,-0.924,0.395,-0.183,-2.134,8.537
-0.157,-0.923,0.393,-2.073,-1.951,7.073
-0.164,-0.929,0.39,-2.866,0.671,6.28
-0.162,-0.94,0.39,-3.11,4.268,5.976
-0.163,-0.947,0.39,-3.537,6.707,5.671
-0.17,-0.944,0.384,-4.024,6.646,4.634
-0.183,-0.945,0.369,-3.902,4.573,3.11
-0.193,-0.958,0.344,-2.988,1.098,2.134
-0.195,-0.974,0.334,-1.463,-2.317,2.012
-0.188,-0.984,0.33,0.488,-4.146,2.561
-0.177,-0.983,0.336,2.317,-3.78,3.11
-0.168,-0.973,0.339,3.659,-1.951,3.232
-0.167,-0.96,0.341,4.024,0.427,3.049
-0.167,-0.955,0.351,3.78,1.341,2.5
-0.17,-0.954,0.361,3.232,0.0,1.646
-0.176,-0.953,0.365,2.256,-2.134,0.366
-0.181,-0.947,0.375,1.341,-3.476,-0.549
-0.176,-0.945,0.38,0.671,-3.415,-1.037
-0.165,-0.944,0.38,0.305,-2.256,-0.61
-0.157,-0.942,0.376,0.122,-0.061,-0.183
-0.152,-0.944,0.376,0.061,3.11,0.061
-0.146,-0.94,0.374,0.122,5.915,0.732
-0.146,-0.939,0.371,-0.244,7.256,1.463
-0.155,-0.931,0.37,-0.732,6.463,1.646
-0.168,-0.932,0.362,-0.793,3.841,1.585
-0.175,-0.939,0.356,-0.61,0.793,1.585
-0.179,-0.945,0.357,-0.488,-0.915,1.22
-0.175,-0.949,0.354,0.0,-1.098,0.61
-0.17,-0.95,0.343,0.427,-0.366,0.305
-0.161,-0.953,0.346,0.488,1.22,0.549
-0.15,-0.953,0.356,0.488,3.049,1.037
-0.148,-0.946,0.362,0.366,4.634,1.037
-0.152,-0.94,0.36,0.183,5.0,0.915
-0.15,-0.94,0.362,-0.122,4.817,1.037
-0.141,-0.943,0.363,-0.305,5.732,1.524
-0.132,-0.941,0.369,-1.159,7.744,2.195
-0.118,-0.935,0.383,-2.317,9.939,2.866
-0.103,-0.928,0.396,-4.268,13.476,3.11
-0.094,-0.927,0.397,-6.341,18.476,3.72
-0.091,-0.928,0.384,-8.72,23.963,4.207
-0.087,-0.935,0.359,-9.085,31.463,4.39
-0.079,-0.953,0.316,-7.317,42.5,5.122
-0.08,-0.971,0.285,-4.756,55.549,6.159
-0.083,-0.974,0.272,-1.829,68.11,7.561
-0.096,-0.966,0.28,2.073,78.11,11.707
-0.104,-0.95,0.274,5.427,87.744,16.951
-0.101,-0.927,0.253,7.622,99.695,19.268
-0.066,-0.917,0.23,12.195,113.476,21.037
-0.041,-0.937,0.23,18.659,126.646,26.098
-0.073,-0.951,0.282,22.866,133.902,33.293
-0.154,-0.932,0.343,21.28,132.439,36.28
-0.265,-0.896,0.363,18.293,120.854,32.866
-0.359,-0.886,0.353,14.695,102.744,26.89
-0.433,-0.911,0.354,10.549,84.878,21.585
-0.471,-0.926,0.374,7.134,70.366,16.341
-0.457,-0.937,0.397,4.634,62.012,11.341
-0.425,-0.935,0.393,4.146,59.634,6.341
-0.423,-0.935,0.355,3.354,56.89,2.683
