acc_x_axis_g,acc_y_axis_g,acc_z_axis_g,gyr_x_axis_deg/s,gyr_y_axis_deg/s,gyr_z_axis_deg/s
-0.321,0.813,0.517,-28.659,96.646,19.451
-0.278,0.892,0.585,-22.744,96.159,16.951
-0.259,0.977,0.616,-16.28,94.634,16.524
-0.217,1.059,0.634,-10.549,90.671,14.451
-0.159,1.141,0.653,-5.366,84.695,12.012
-0.116,1.21,0.667,-1.768,77.134,12.256
-0.062,1.261,0.682,-0.366,65.366,10.549
0.005,1.27,0.667,-1.89,49.146,9.451
0.111,1.237,0.627,-4.207,31.159,10.488
0.217,1.2,0.582,-6.037,15.793,11.89
0.261,1.15,0.557,-8.963,0.976,14.146
0.249,1.063,0.509,-9.512,-16.098,16.159
0.239,0.963,0.46,-7.866,-30.61,18.72
0.269,0.911,0.441,-4.451,-43.171,20.305
0.259,0.848,0.395,-1.037,-52.683,22.073
0.216,0.776,0.355,0.183,-58.72,22.256
0.167,0.711,0.346,0.488,-60.915,22.378
0.115,0.658,0.329,0.793,-58.476,24.634
0.086,0.611,0.292,0.549,-50.671,26.341
0.066,0.562,0.25,-1.402,-40.793,24.085
0.013,0.521,0.195,-3.049,-33.049,19.634
-0.078,0.503,0.14,-3.354,-24.878,16.585
-0.12,0.522,0.135,-3.78,-12.561,12.744
-0.117,0.513,0.14,-4.634,4.817,8.598
-0.132,0.491,0.119,-4.634,24.695,4.024
-0.174,0.533,0.124,-4.268,44.39,0.0
-0.214,0.621,0.157,-4.451,63.476,-3.11
-0.25,0.683,0.209,-4.329,81.098,-5.671
-0.336,0.729,0.269,-2.5,97.134,-7.378
-0.454,0.816,0.348,-1.524,108.171,-9.329
-0.601,0.946,0.433,-1.037,110.976,-12.805
-0.715,1.053,0.514,-3.537,108.963,-17.439
-0.771,1.136,0.592,-3.11,106.951,-22.439
-0.802,1.192,0.635,0.671,104.207,-26.463
-0.785,1.243,0.667,3.293,99.573,-31.402
-0.715,1.284,0.672,5.0,92.744,-37.805
-0.631,1.288,0.635,5.854,86.463,-42.256
-0.51,1.267,0.59,8.049,82.622,-43.598
-0.331,1.198,0.55,9.634,78.598,-41.341
-0.152,1.101,0.536,9.146,69.634,-36.341
-0.003,1.019,0.537,8.902,56.341,-28.049
0.132,0.985,0.503,8.415,39.512,-16.402
0.249,0.981,0.442,7.866,20.183,-1.768
0.354,0.96,0.397,7.988,-1.524,13.293
0.451,0.908,0.383,7.317,-27.073,27.256
0.519,0.845,0.351,5.976,-53.476,39.39
0.51,0.775,0.277,2.439,-78.476,47.256
0.464,0.708,0.207,-0.976,-99.39,51.098
0.417,0.7,0.157,-2.378,-110.976,52.866
0.349,0.694,0.114,-2.378,-109.756,54.085
0.278,0.656,0.113,-3.11,-99.085,53.415
0.163,0.603,0.115,-3.902,-84.146,48.049
0.014,0.556,0.074,-6.037,-64.146,39.146
-0.137,0.554,0.089,-8.11,-40.61,28.72
-0.309,0.557,0.119,-8.171,-16.951,17.622
-0.477,0.526,0.161,-6.829,7.866,5.732
-0.592,0.512,0.215,-3.841,32.378,-3.415
-0.685,0.556,0.233,-2.5,53.963,-11.585
-0.737,0.631,0.27,-1.89,72.256,-19.329
-0.759,0.68,0.288,-1.098,88.293,-25.549
-0.752,0.729,0.326,-0.183,104.085,-29.817
-0.714,0.805,0.384,1.037,116.341,-30.61
-0.668,0.862,0.447,0.976,122.927,-30.183
-0.621,0.917,0.483,0.61,123.354,-29.878
-0.554,1.014,0.5,4.756,118.72,-27.561
-0.455,1.167,0.546,10.854,107.317,-23.415
-0.336,1.305,0.581,14.817,89.085,-21.341
-0.247,1.392,0.598,15.183,65.366,-20.854
-0.19,1.479,0.596,15.305,38.659,-19.939
-0.097,1.558,0.58,15.244,15.244,-17.439
0.038,1.546,0.573,13.232,-3.598,-13.476
0.188,1.421,0.571,12.012,-19.756,-7.866
0.313,1.272,0.553,12.927,-34.939,-0.854
0.381,1.156,0.531,15.854,-47.744,8.415
0.395,1.053,0.514,17.073,-55.122,17.134
0.367,0.924,0.473,16.402,-59.085,24.695
0.308,0.794,0.386,15.915,-60.793,32.866
0.22,0.713,0.271,13.659,-62.256,39.024
0.15,0.665,0.182,6.951,-67.256,41.463
0.106,0.623,0.133,-1.22,-72.805,41.707
0.04,0.553,0.092,-7.134,-73.659,40.427
-0.054,0.484,0.064,-9.695,-70.671,37.744
-0.146,0.466,0.067,-12.012,-63.659,33.72
-0.244,0.431,0.044,-14.939,-51.098,26.159
-0.281,0.369,0.044,-16.22,-33.415,17.073
-0.277,0.388,0.095,-14.634,-11.524,9.024
-0.262,0.447,0.144,-12.927,13.171,1.524
-0.294,0.479,0.151,-11.585,37.073,-5.244
-0.355,0.538,0.169,-11.402,57.134,-11.28
-0.397,0.633,0.195,-10.671,72.744,-16.22
-0.453,0.732,0.25,-11.524,81.22,-20.366
-0.526,0.818,0.303,-16.89,80.671,-23.049
-0.583,0.916,0.368,-16.89,77.866,-28.171
-0.631,1.031,0.45,-12.866,72.927,-31.524
-0.633,1.11,0.554,-8.902,71.768,-32.805
-0.66,1.156,0.641,-5.366,73.659,-34.207
-0.689,1.203,0.687,0.671,73.963,-35.427
-0.683,1.237,0.692,7.134,69.939,-35.976
-0.61,1.262,0.676,12.622,62.5,-36.341
-0.5,1.282,0.644,16.22,54.024,-36.402
-0.381,1.275,0.609,18.841,44.39,-33.11
-0.231,1.258,0.563,20.976,32.866,-26.28
-0.12,1.248,0.518,20.244,23.171,-17.195
-0.016,1.243,0.461,18.78,13.902,-6.341
0.116,1.219,0.379,19.207,1.951,3.841
0.261,1.194,0.325,19.329,-17.073,12.195
0.364,1.129,0.284,18.537,-40.61,19.146
0.437,1.013,0.239,17.744,-64.634,26.159
0.482,0.891,0.193,15.976,-83.476,32.927
0.492,0.809,0.157,14.085,-93.78,39.207
0.426,0.725,0.126,13.232,-95.915,46.341
0.377,0.646,0.132,12.256,-89.146,52.866
0.293,0.561,0.166,9.878,-78.902,56.098
0.13,0.462,0.181,7.134,-66.402,56.89
-0.064,0.4,0.186,0.915,-51.28,53.963
-0.215,0.412,0.201,-6.585,-36.89,45.366
-0.302,0.417,0.211,-12.073,-25.183,32.988
-0.376,0.41,0.187,-16.524,-11.402,21.28
-0.441,0.445,0.131,-21.098,5.183,8.902
-0.45,0.513,0.113,-23.354,23.659,-2.622
-0.417,0.576,0.123,-24.207,44.878,-11.098
-0.419,0.625,0.114,-21.646,65.549,-17.256
-0.454,0.705,0.15,-14.39,82.683,-21.28
-0.465,0.817,0.203,-7.927,93.415,-23.232
-0.473,0.922,0.25,-3.841,99.573,-23.72
-0.541,1.005,0.325,2.378,102.622,-26.402
-0.64,1.069,0.418,6.402,97.256,-27.866
-0.695,1.124,0.513,9.817,83.902,-29.695
-0.733,1.196,0.599,11.28,68.476,-33.476
-0.725,1.258,0.636,11.159,54.634,-37.744
-0.658,1.314,0.611,12.378,44.146,-39.573
-0.57,1.398,0.58,14.878,38.354,-39.085
-0.485,1.438,0.545,16.524,37.317,-36.28
-0.372,1.418,0.509,17.378,39.024,-31.463
-0.219,1.379,0.474,19.024,37.012,-24.634
-0.076,1.333,0.472,20.671,28.476,-16.402
0.063,1.254,0.466,22.195,15.244,-6.463
0.168,1.149,0.432,22.744,-2.073,1.89
0.25,1.047,0.396,22.378,-23.72,11.524
0.325,0.98,0.381,21.341,-44.695,21.951
0.351,0.893,0.361,16.829,-62.988,30.488
0.358,0.775,0.279,9.756,-77.622,38.171
0.36,0.712,0.196,3.659,-85.671,44.939
0.332,0.693,0.157,-1.768,-87.5,50.061
0.249,0.637,0.093,-7.439,-83.293,52.134
0.193,0.561,0.045,-13.537,-74.146,51.28
0.136,0.51,0.022,-18.049,-63.841,46.646
0.025,0.486,0.026,-21.098,-53.171,41.159
-0.098,0.452,0.026,-25.915,-40.366,33.232
-0.176,0.38,0.049,-28.72,-26.402,21.89
-0.284,0.372,0.064,-26.585,-11.037,14.146
-0.472,0.446,0.098,-22.805,9.024,8.049
-0.7,0.479,0.162,-20.915,30.0,0.305
-0.762,0.496,0.178,-18.537,48.415,-6.951
-0.58,0.646,0.201,-13.72,66.951,-13.232
-0.629,0.772,0.234,-10.793,84.39,-19.39
-0.754,0.776,0.273,-11.585,95.488,-24.024
-0.761,0.833,0.304,-10.122,106.28,-27.927
-0.731,0.941,0.332,-5.183,114.268,-29.451
-0.704,1.054,0.4,2.012,114.146,-28.415
-0.638,1.13,0.472,7.988,101.951,-27.805
-0.549,1.187,0.524,13.598,77.256,-30.122
-0.472,1.256,0.549,20.427,50.61,-32.561
-0.403,1.341,0.549,21.768,38.049,-31.098
-0.337,1.403,0.546,19.024,30.244,-29.756
-0.242,1.453,0.541,20.488,14.024,-26.524
-0.101,1.488,0.523,23.171,-2.256,-20.732
0.041,1.479,0.478,25.549,-16.524,-13.293
0.142,1.427,0.435,25.244,-29.573,-5.305
0.188,1.344,0.379,24.329,-41.585,3.72
0.213,1.238,0.302,24.268,-52.866,12.439
0.245,1.144,0.259,24.878,-63.659,18.902
0.271,1.031,0.243,23.537,-72.561,24.329
0.291,0.907,0.214,20.549,-79.695,30.183
0.269,0.797,0.19,16.768,-84.756,34.817
0.201,0.698,0.208,11.707,-84.573,38.902
0.143,0.591,0.25,5.244,-79.085,41.463
0.089,0.479,0.278,-1.585,-70.976,41.159
0.01,0.384,0.262,-7.927,-64.512,37.012
-0.094,0.364,0.218,-14.573,-57.805,31.585
-0.203,0.383,0.142,-22.378,-47.622,24.695
-0.244,0.37,0.085,-29.451,-34.695,16.829
-0.245,0.376,0.064,-34.939,-19.146,10.244
-0.227,0.43,0.053,-37.988,-2.866,3.537
-0.223,0.494,0.047,-38.049,10.793,-3.232
-0.217,0.537,0.039,-35.976,23.232,-8.171
-0.212,0.591,0.052,-29.329,38.171,-11.22
-0.285,0.676,0.119,-19.085,54.024,-13.598
-0.403,0.785,0.171,-12.378,66.646,-14.878
-0.507,0.89,0.239,-6.768,75.549,-18.659
-0.633,0.993,0.308,1.463,75.0,-24.573
-0.782,1.101,0.411,6.585,68.72,-29.146
-0.86,1.189,0.542,9.085,62.439,-32.866
-0.884,1.226,0.615,11.646,56.402,-37.256
-0.892,1.263,0.61,14.573,50.305,-40.366
-0.854,1.316,0.597,16.951,48.293,-42.866
-0.745,1.318,0.562,19.39,47.439,-44.268
-0.57,1.3,0.513,21.098,44.512,-43.537
-0.399,1.284,0.487,21.341,42.317,-40.61
-0.267,1.25,0.473,20.793,37.683,-35.244
-0.158,1.224,0.429,18.232,28.659,-27.195
-0.029,1.208,0.377,13.963,16.585,-16.768
0.097,1.194,0.355,11.951,1.585,-4.634
0.23,1.159,0.335,11.22,-18.537,7.439
0.364,1.101,0.343,8.841,-45.366,16.707
0.453,1.037,0.358,7.134,-75.549,24.817
0.464,0.932,0.363,5.793,-98.963,31.341
0.471,0.827,0.366,2.988,-109.573,36.463
0.475,0.74,0.335,-0.549,-109.085,42.012
0.399,0.655,0.25,-4.024,-102.927,43.841
0.263,0.618,0.155,-6.829,-93.171,44.939
0.144,0.61,0.098,-10.488,-77.073,44.634
0.037,0.571,0.058,-13.841,-62.134,40.549
-0.073,0.508,0.043,-16.402,-47.988,35.427
-0.189,0.465,0.044,-20.915,-34.268,27.5
-0.311,0.463,0.052,-23.232,-23.902,18.354
-0.426,0.424,0.045,-23.293,-12.317,10.366
-0.515,0.402,0.072,-21.829,5.854,3.171
-0.58,0.453,0.128,-17.744,30.183,-3.049
-0.636,0.506,0.173,-13.598,55.549,-9.451
-0.634,0.535,0.181,-11.28,76.707,-15.366
-0.605,0.599,0.212,-9.451,91.22,-21.159
-0.631,0.696,0.216,-6.037,99.695,-26.098
-0.652,0.791,0.234,-6.159,100.488,-28.11
-0.626,0.883,0.265,-8.598,96.159,-28.415
-0.614,0.981,0.309,-4.512,88.78,-30.854
-0.621,1.067,0.373,1.098,78.354,-31.646
-0.594,1.159,0.44,5.732,66.585,-31.159
-0.561,1.264,0.506,11.341,55.0,-31.159
-0.504,1.377,0.557,17.5,44.939,-29.451
-0.45,1.443,0.578,22.927,36.341,-26.768
-0.389,1.455,0.593,26.22,27.439,-24.329
-0.295,1.467,0.591,27.927,17.683,-20.854
-0.198,1.462,0.541,27.683,6.463,-15.976
-0.078,1.408,0.474,26.22,-5.427,-10.854
0.052,1.315,0.446,24.024,-16.524,-4.329
0.139,1.201,0.434,21.951,-26.89,3.11
0.183,1.083,0.41,21.28,-36.341,10.305
0.204,0.98,0.38,18.841,-45.366,15.671
0.195,0.896,0.32,14.878,-52.927,20.671
0.171,0.826,0.256,11.037,-58.11,27.317
0.149,0.773,0.221,5.671,-60.793,33.841
0.114,0.708,0.178,-0.061,-64.024,37.256
0.079,0.64,0.133,-4.207,-67.012,38.659
0.043,0.592,0.095,-8.232,-64.939,39.146
0.006,0.549,0.064,-12.317,-56.89,37.317
-0.061,0.502,0.052,-15.427,-46.341,33.598
-0.138,0.456,0.045,-17.622,-33.659,28.354
-0.186,0.407,0.045,-19.146,-18.78,22.561
-0.221,0.39,0.085,-19.39,-3.232,16.89
-0.263,0.418,0.127,-19.756,12.317,10.122
-0.292,0.455,0.142,-19.878,26.89,4.085
-0.305,0.484,0.143,-18.963,38.72,-0.366
-0.373,0.547,0.169,-17.988,49.268,-5.244
-0.469,0.644,0.176,-17.378,57.5,-9.817
-0.538,0.752,0.185,-17.439,62.439,-14.268
-0.619,0.874,0.227,-15.305,67.988,-19.146
-0.702,1.009,0.306,-9.085,73.537,-23.11
-0.763,1.148,0.391,-1.89,77.805,-26.402
-0.831,1.247,0.463,4.634,79.756,-29.329
-0.885,1.324,0.526,11.402,78.659,-33.049
-0.886,1.395,0.56,18.11,72.317,-37.561
-0.819,1.417,0.553,23.293,60.854,-41.585
-0.694,1.412,0.549,27.317,48.537,-43.963
-0.528,1.374,0.535,30.244,39.451,-43.72
-0.364,1.329,0.524,30.671,31.463,-39.207
-0.251,1.293,0.489,29.756,22.5,-30.854
-0.188,1.264,0.41,25.0,13.598,-20.854
-0.062,1.225,0.333,19.695,3.354,-9.085
0.099,1.172,0.3,14.878,-11.89,2.561
0.209,1.072,0.284,9.329,-32.683,12.012
0.321,0.961,0.271,5.122,-56.037,20.366
0.436,0.885,0.268,2.012,-76.159,27.256
0.477,0.783,0.258,-0.488,-88.293,34.268
0.461,0.678,0.22,-1.829,-90.793,42.866
0.416,0.612,0.149,-4.024,-86.098,51.463
0.348,0.571,0.071,-7.073,-80.976,56.159
0.285,0.529,0.036,-9.512,-76.829,58.354
0.191,0.479,0.021,-14.085,-66.829,57.378
0.057,0.443,0.029,-17.988,-56.951,51.646
-0.125,0.41,0.018,-20.976,-47.744,44.512
-0.284,0.371,0.006,-25.915,-33.415,34.817
-0.456,0.361,0.042,-28.537,-16.037,23.171
-0.613,0.395,0.096,-28.232,3.354,12.256
-0.715,0.443,0.143,-25.976,26.098,1.585
-0.776,0.505,0.173,-22.378,50.061,-9.146
-0.822,0.586,0.203,-17.561,71.159,-18.171
-0.855,0.679,0.249,-11.585,87.805,-26.524
-0.85,0.778,0.326,-10.0,98.415,-33.354
-0.801,0.866,0.4,-7.439,104.634,-37.683
-0.759,0.906,0.432,-0.915,105.061,-41.22
-0.719,0.926,0.442,4.268,97.317,-43.598
-0.647,0.943,0.459,8.902,82.5,-44.878
-0.55,0.928,0.459,13.659,62.927,-44.695
-0.465,0.879,0.473,18.659,44.451,-41.585
