acc_x_axis_g,acc_y_axis_g,acc_z_axis_g,gyr_x_axis_deg/s,gyr_y_axis_deg/s,gyr_z_axis_deg/s
-0.374,0.767,0.319,-52.317,98.659,28.476
-0.423,0.786,0.303,-49.39,88.293,25.122
-0.42,0.81,0.289,-46.89,78.11,22.866
-0.416,0.828,0.283,-45.854,71.768,21.707
-0.412,0.837,0.298,-43.049,66.28,20.427
-0.389,0.826,0.327,-38.171,61.707,19.329
-0.388,0.813,0.333,-33.049,57.561,19.451
-0.391,0.811,0.327,-29.573,55.244,20.427
-0.379,0.824,0.307,-27.317,52.561,19.878
-0.364,0.832,0.293,-25.854,45.305,16.951
-0.391,0.824,0.279,-26.037,33.232,12.805
-0.423,0.824,0.272,-26.524,22.561,10.793
-0.42,0.822,0.275,-28.293,18.476,9.024
-0.393,0.824,0.24,-28.537,19.329,7.927
-0.372,0.806,0.231,-29.207,19.451,4.451
-0.334,0.803,0.242,-32.317,17.988,-0.976
-0.323,0.809,0.262,-34.207,17.378,-5.427
-0.314,0.8,0.266,-35.488,23.171,-7.439
-0.287,0.785,0.204,-34.939,31.524,-9.268
-0.252,0.765,0.177,-30.854,35.305,-12.561
-0.256,0.741,0.208,-26.524,35.671,-14.207
-0.26,0.733,0.239,-23.72,35.427,-15.915
-0.286,0.728,0.276,-18.78,33.293,-17.378
-0.344,0.691,0.314,-12.012,27.622,-17.744
-0.381,0.66,0.337,-5.366,17.256,-16.768
-0.425,0.651,0.347,-0.488,5.671,-13.72
-0.498,0.661,0.306,3.11,-3.963,-10.244
-0.542,0.685,0.247,5.549,-11.829,-6.707
-0.56,0.724,0.185,5.183,-17.622,-2.195
-0.596,0.775,0.133,3.841,-22.805,2.134
-0.629,0.809,0.11,4.085,-26.951,6.707
-0.628,0.818,0.118,4.634,-29.451,10.61
-0.601,0.837,0.134,3.963,-31.829,14.756
-0.586,0.876,0.179,1.89,-32.988,19.085
-0.554,0.908,0.254,1.341,-31.098,22.622
-0.493,0.918,0.312,2.256,-27.073,23.78
-0.452,0.929,0.334,3.902,-25.976,22.683
-0.433,0.951,0.381,5.427,-27.073,22.622
-0.409,0.984,0.396,3.659,-27.744,21.098
-0.353,1.026,0.395,2.683,-33.476,15.671
-0.318,1.036,0.432,2.378,-42.256,11.037
-0.311,1.027,0.471,2.134,-47.134,9.207
-0.286,1.023,0.498,0.793,-48.598,6.707
-0.241,1.019,0.545,0.366,-48.293,3.598
-0.21,0.996,0.551,2.134,-46.707,-0.488
-0.221,0.965,0.5,4.451,-45.366,-2.988
-0.26,0.947,0.466,3.659,-43.11,-2.805
-0.284,0.96,0.448,2.805,-39.085,-2.744
-0.28,0.962,0.401,2.866,-29.634,-2.012
-0.278,0.945,0.321,2.073,-14.939,0.427
-0.253,0.938,0.271,0.122,-0.366,0.976
-0.228,0.942,0.243,-3.415,7.805,-0.122
-0.244,0.924,0.193,-5.671,6.89,-2.073
-0.273,0.9,0.177,-9.451,5.427,-2.195
-0.272,0.894,0.165,-14.512,5.976,-4.39
-0.23,0.878,0.183,-15.732,8.049,-7.622
-0.199,0.822,0.202,-16.28,15.671,-9.207
-0.192,0.771,0.199,-15.183,24.024,-11.89
-0.166,0.727,0.242,-14.207,32.927,-14.695
-0.165,0.696,0.274,-11.524,38.841,-17.561
-0.193,0.668,0.263,-7.378,42.683,-18.476
-0.234,0.639,0.216,-4.695,49.939,-17.317
-0.259,0.639,0.191,-2.256,56.89,-17.622
-0.263,0.647,0.197,1.098,58.659,-18.598
-0.303,0.646,0.2,4.207,52.195,-19.146
-0.368,0.654,0.18,5.122,39.939,-19.939
-0.415,0.702,0.149,2.5,27.866,-20.671
-0.433,0.752,0.125,1.22,16.524,-23.72
-0.392,0.78,0.151,-2.256,20.366,-21.951
-0.34,0.805,0.138,-5.549,32.317,-19.39
-0.405,0.833,0.136,-4.573,38.902,-16.89
-0.526,0.829,0.193,-2.195,40.671,-11.524
-0.624,0.835,0.249,0.488,40.854,-5.061
-0.632,0.85,0.29,2.561,36.22,-0.305
-0.648,0.855,0.32,5.549,23.963,4.207
-0.691,0.846,0.324,7.744,5.061,8.11
-0.695,0.858,0.346,7.5,-16.159,12.134
-0.69,0.876,0.353,8.049,-33.049,15.244
-0.674,0.869,0.351,9.817,-39.939,17.683
-0.617,0.857,0.369,12.561,-36.89,21.28
-0.538,0.854,0.377,14.024,-28.902,23.476
-0.495,0.87,0.378,13.171,-25.0,24.573
-0.52,0.892,0.341,10.976,-29.573,23.963
-0.534,0.932,0.276,6.463,-36.22,23.598
-0.457,0.978,0.247,1.402,-38.293,23.293
-0.381,0.986,0.253,-0.732,-38.78,20.61
-0.346,0.969,0.267,-2.439,-41.463,17.866
-0.317,0.972,0.276,-3.598,-43.11,17.683
-0.285,0.984,0.315,-4.573,-39.024,18.659
-0.257,0.996,0.39,-4.756,-33.293,16.585
-0.24,0.993,0.419,-2.561,-27.622,13.537
-0.204,0.982,0.44,-2.317,-19.085,12.622
-0.206,0.977,0.455,-0.976,-12.683,10.427
-0.191,0.961,0.46,0.183,-4.39,7.927
-0.179,0.946,0.439,1.646,4.085,5.915
-0.184,0.928,0.397,2.378,11.585,3.78
-0.192,0.923,0.377,1.829,17.805,2.256
-0.222,0.917,0.329,1.28,22.256,2.256
-0.243,0.909,0.282,-0.244,27.012,2.439
-0.248,0.9,0.267,-1.524,32.195,1.829
-0.25,0.878,0.263,-1.463,36.341,0.488
-0.271,0.841,0.265,-0.671,39.573,0.244
-0.278,0.811,0.269,-0.122,43.11,-0.488
-0.272,0.803,0.271,-0.366,45.427,-2.317
-0.267,0.802,0.26,-0.488,46.585,-4.573
-0.263,0.788,0.25,-0.366,47.561,-6.89
-0.26,0.768,0.226,0.0,48.841,-8.841
-0.25,0.751,0.21,-0.244,51.646,-10.549
-0.257,0.738,0.18,0.854,54.817,-12.012
-0.279,0.717,0.162,1.951,58.415,-12.744
-0.295,0.707,0.15,1.463,61.585,-13.598
-0.314,0.714,0.146,1.402,61.159,-15.244
-0.331,0.718,0.143,0.854,58.049,-16.89
-0.349,0.727,0.142,-0.488,52.073,-19.024
-0.347,0.736,0.141,-2.378,44.756,-22.622
-0.334,0.739,0.121,-2.317,32.012,-27.439
-0.341,0.733,0.083,-2.073,20.488,-29.329
-0.345,0.742,0.029,-6.037,17.134,-27.561
-0.42,0.78,0.005,-8.11,15.488,-24.756
-0.483,0.828,0.05,-10.366,19.024,-18.841
-0.57,0.858,0.139,-10.061,22.5,-12.134
-0.65,0.855,0.244,-7.866,26.28,-8.049
-0.667,0.843,0.337,-4.695,25.305,-3.72
-0.684,0.822,0.375,-0.366,14.268,0.915
-0.705,0.821,0.367,1.037,-1.159,3.902
-0.69,0.864,0.371,2.683,-12.927,8.598
-0.656,0.869,0.35,5.732,-17.805,10.549
-0.6,0.857,0.347,10.0,-20.305,11.707
-0.549,0.845,0.344,13.659,-20.549,15.183
-0.551,0.851,0.294,13.963,-20.61,17.439
-0.547,0.895,0.256,12.988,-23.415,17.5
-0.522,0.933,0.233,10.732,-24.756,17.866
-0.49,0.957,0.216,6.829,-22.744,18.659
-0.464,0.973,0.204,3.841,-20.61,18.537
-0.448,0.981,0.219,1.22,-20.915,18.11
-0.44,0.993,0.232,-1.768,-24.512,17.073
-0.407,1.018,0.26,-3.659,-27.256,15.61
-0.365,1.017,0.296,-2.378,-28.354,12.988
-0.326,0.991,0.354,-0.549,-28.659,9.756
-0.288,0.981,0.423,1.585,-27.439,6.768
-0.26,0.972,0.459,4.207,-22.683,4.573
-0.232,0.962,0.476,5.305,-16.28,3.902
-0.228,0.964,0.486,5.0,-10.366,2.195
-0.249,0.962,0.449,6.402,-7.988,-0.793
-0.291,0.941,0.398,5.976,-5.488,-0.183
-0.32,0.926,0.326,3.476,-0.427,0.183
-0.324,0.928,0.253,1.22,4.756,-1.037
-0.319,0.908,0.202,-1.22,8.841,-1.829
-0.326,0.882,0.17,-4.085,11.646,-1.89
-0.329,0.86,0.146,-7.012,13.598,-2.988
-0.317,0.827,0.138,-8.963,15.488,-4.451
-0.311,0.79,0.14,-9.756,16.463,-6.585
-0.309,0.759,0.147,-9.268,17.622,-8.415
-0.302,0.736,0.167,-8.232,19.512,-10.793
-0.276,0.723,0.18,-6.341,23.049,-12.561
-0.259,0.717,0.188,-4.634,28.354,-13.841
-0.252,0.721,0.197,-1.89,34.085,-15.244
-0.262,0.704,0.201,1.159,38.415,-16.951
-0.281,0.699,0.198,2.439,40.793,-18.476
-0.314,0.719,0.187,2.744,40.061,-19.817
-0.345,0.739,0.184,3.049,38.72,-20.488
-0.365,0.742,0.166,2.988,38.841,-19.573
-0.377,0.743,0.15,3.293,37.256,-19.573
-0.398,0.748,0.134,1.89,32.5,-20.244
-0.443,0.763,0.13,0.854,22.866,-20.0
-0.501,0.777,0.111,-1.524,18.598,-17.073
-0.532,0.811,0.095,-5.915,16.402,-14.39
-0.563,0.834,0.134,-4.207,11.037,-10.915
-0.63,0.804,0.188,-2.5,5.854,-7.5
-0.647,0.804,0.212,-0.549,0.122,-2.378
-0.656,0.81,0.225,1.707,-7.805,2.134
-0.654,0.823,0.229,3.659,-16.646,5.427
-0.647,0.851,0.233,4.634,-26.524,8.598
-0.648,0.88,0.241,6.646,-35.244,12.195
-0.657,0.889,0.248,8.293,-40.305,15.976
-0.625,0.905,0.246,9.146,-40.976,19.207
-0.59,0.93,0.249,9.207,-38.476,22.134
-0.555,0.951,0.267,8.415,-33.049,24.756
-0.504,0.972,0.29,6.22,-26.22,26.768
-0.46,0.982,0.286,4.756,-22.805,25.671
-0.438,0.983,0.261,3.171,-24.329,23.902
-0.42,0.993,0.268,0.427,-27.927,22.5
-0.392,1.008,0.287,-0.183,-30.976,19.695
-0.343,1.002,0.314,0.427,-30.366,16.463
-0.287,0.986,0.354,2.195,-27.683,12.988
-0.243,0.974,0.396,4.268,-23.293,9.573
-0.212,0.965,0.425,5.854,-16.951,7.012
-0.209,0.957,0.424,6.707,-9.878,5.244
-0.227,0.947,0.419,6.159,-4.878,3.11
-0.244,0.947,0.411,6.28,-0.854,1.585
-0.283,0.933,0.367,4.878,4.939,1.646
-0.311,0.93,0.292,3.171,10.427,1.524
-0.314,0.926,0.239,1.89,14.268,1.646
-0.327,0.913,0.206,0.0,16.159,2.073
-0.343,0.898,0.185,-2.622,16.28,1.585
-0.341,0.879,0.174,-4.268,15.244,0.488
-0.321,0.846,0.162,-5.976,14.146,-0.732
-0.311,0.819,0.149,-7.134,13.354,-2.561
-0.299,0.801,0.162,-8.171,14.756,-5.122
-0.277,0.78,0.165,-7.744,19.024,-7.683
-0.253,0.752,0.168,-6.524,26.402,-9.695
-0.234,0.728,0.168,-4.878,35.488,-11.89
-0.242,0.707,0.164,-2.317,42.5,-13.415
-0.271,0.691,0.172,-1.098,48.415,-13.963
-0.304,0.691,0.166,0.488,51.89,-14.512
-0.331,0.698,0.154,1.829,52.134,-15.061
-0.368,0.704,0.148,2.5,47.744,-15.793
-0.391,0.709,0.153,3.659,42.134,-16.159
-0.407,0.721,0.14,1.28,43.293,-14.878
-0.419,0.751,0.13,-1.037,40.61,-15.732
-0.444,0.767,0.103,-1.22,37.622,-16.89
-0.5,0.778,0.083,-4.695,33.415,-15.671
-0.572,0.816,0.099,-6.098,25.976,-12.439
-0.641,0.827,0.12,-7.5,20.549,-10.732
-0.635,0.843,0.157,-5.854,13.232,-8.11
-0.651,0.837,0.19,-4.146,2.561,-3.476
-0.673,0.836,0.207,-2.5,-9.085,0.183
-0.647,0.856,0.219,-1.341,-18.537,3.293
-0.629,0.873,0.251,1.037,-24.817,7.927
-0.623,0.867,0.267,4.634,-27.5,11.524
-0.603,0.86,0.269,7.805,-29.207,14.268
-0.581,0.867,0.269,9.207,-30.427,17.195
-0.573,0.896,0.262,9.146,-29.39,20.488
-0.539,0.925,0.249,8.78,-26.22,21.402
-0.477,0.956,0.253,7.317,-21.524,21.707
-0.446,0.974,0.242,5.488,-19.817,21.037
-0.431,0.984,0.228,4.695,-22.866,19.268
-0.419,1.0,0.215,2.073,-26.829,18.415
-0.39,1.029,0.231,-0.976,-28.293,16.28
-0.334,1.039,0.268,0.122,-26.646,13.232
-0.275,1.018,0.304,2.5,-22.195,11.28
-0.256,1.004,0.342,4.024,-16.768,10.122
-0.258,1.017,0.365,4.146,-8.902,9.146
-0.266,1.024,0.359,4.573,0.122,8.72
-0.272,1.014,0.328,5.122,6.28,7.5
-0.285,0.992,0.312,4.512,8.841,6.89
-0.335,0.975,0.304,2.012,8.293,7.317
-0.364,0.965,0.29,-0.305,6.463,7.317
-0.368,0.94,0.262,-1.89,5.122,7.012
-0.383,0.905,0.22,-3.598,4.146,6.951
-0.392,0.881,0.189,-4.817,5.366,6.89
-0.372,0.858,0.188,-4.512,9.695,6.037
-0.337,0.828,0.189,-2.683,14.634,3.598
-0.319,0.79,0.194,1.463,17.134,0.976
-0.323,0.752,0.228,5.183,19.878,0.122
-0.327,0.74,0.267,8.293,25.915,-1.402
-0.317,0.733,0.284,13.841,31.463,-4.024
-0.308,0.702,0.309,17.744,36.341,-6.463
-0.306,0.694,0.302,21.098,40.061,-8.415
-0.303,0.703,0.28,23.72,44.146,-9.512
-0.339,0.725,0.292,26.524,45.0,-9.573
-0.407,0.742,0.316,31.585,39.939,-10.183
-0.464,0.743,0.358,38.049,29.756,-9.695
-0.5,0.736,0.392,44.329,13.415,-8.78
-0.522,0.732,0.415,50.549,-5.854,-7.744
