acc_x_axis_g,acc_y_axis_g,acc_z_axis_g,gyr_x_axis_deg/s,gyr_y_axis_deg/s,gyr_z_axis_deg/s
-0.208,-0.883,0.121,9.573,-18.354,2.134
-0.176,-0.96,-0.06,8.78,-12.195,7.012
-0.311,-1.045,-0.22,18.963,-3.11,3.415
-0.427,-1.097,-0.304,31.341,0.793,0.061
-0.484,-1.092,-0.313,41.159,1.341,-1.89
-0.443,-1.064,-0.253,47.683,1.037,-2.378
-0.4,-1.006,-0.187,50.732,-0.061,-2.256
-0.453,-0.953,-0.119,51.463,-7.317,-5.183
-0.531,-0.918,-0.054,50.0,-23.476,-7.805
-0.521,-0.867,-0.02,44.451,-38.78,-7.378
-0.455,-0.847,0.009,39.451,-44.268,-7.561
-0.424,-0.843,0.022,35.366,-44.512,-8.476
-0.394,-0.825,0.036,30.61,-46.524,-6.768
-0.32,-0.799,0.048,24.512,-49.207,-2.073
-0.279,-0.789,0.031,20.061,-50.549,1.768
-0.328,-0.801,-0.017,18.415,-54.695,2.622
-0.383,-0.821,-0.061,18.11,-65.915,3.232
-0.408,-0.828,-0.107,18.902,-82.561,4.268
-0.436,-0.837,-0.12,21.463,-101.829,4.024
-0.432,-0.823,-0.104,20.976,-123.232,4.939
-0.424,-0.795,-0.106,18.537,-135.061,7.378
-0.389,-0.792,-0.053,18.11,-129.817,8.049
-0.305,-0.788,0.071,16.463,-109.39,8.354
-0.245,-0.762,0.152,11.646,-80.793,8.963
-0.25,-0.766,0.153,7.134,-53.963,9.146
-0.303,-0.813,0.143,4.329,-36.524,8.354
-0.376,-0.862,0.138,1.402,-29.634,6.829
-0.393,-0.903,0.12,-1.463,-30.0,6.341
-0.385,-0.937,0.127,-3.354,-30.549,7.378
-0.343,-0.954,0.129,-4.756,-27.866,8.963
-0.32,-0.962,0.128,-4.817,-24.207,9.634
-0.34,-0.97,0.103,-3.476,-21.707,9.573
-0.384,-0.98,0.109,-1.768,-19.695,9.634
-0.401,-0.982,0.114,-1.159,-17.378,9.207
-0.392,-0.976,0.154,-1.524,-12.012,7.866
-0.348,-0.958,0.207,-3.598,-3.232,7.256
-0.307,-0.946,0.21,-6.098,7.317,8.171
-0.33,-0.953,0.215,-8.415,11.585,8.78
-0.377,-0.95,0.205,-11.28,7.195,9.573
-0.403,-0.939,0.175,-12.988,1.768,11.28
-0.393,-0.941,0.155,-13.537,-0.122,12.5
-0.379,-0.946,0.125,-13.293,2.317,13.049
-0.394,-0.95,0.1,-11.951,6.341,12.012
-0.392,-0.943,0.094,-10.732,10.61,11.037
-0.367,-0.948,0.087,-9.695,16.28,11.22
-0.371,-0.968,0.081,-8.171,22.256,10.305
-0.392,-0.975,0.078,-7.134,25.305,8.598
-0.391,-0.964,0.081,-6.646,27.073,8.354
-0.384,-0.951,0.086,-6.098,30.244,8.537
-0.368,-0.953,0.093,-5.0,35.244,8.415
-0.338,-0.973,0.108,-3.72,44.146,8.476
-0.322,-0.986,0.102,-2.683,54.817,8.049
-0.33,-1.002,0.095,-0.854,62.561,7.378
-0.353,-1.013,0.101,0.488,65.549,7.134
-0.417,-1.014,0.094,0.793,59.634,5.488
-0.502,-1.025,0.123,-0.549,44.512,2.256
-0.539,-1.02,0.166,-3.659,33.598,-0.244
-0.467,-1.018,0.166,-4.634,36.159,-1.951
-0.394,-1.032,0.172,-3.232,47.683,-2.805
-0.36,-1.027,0.178,-2.5,60.305,-1.402
-0.375,-1.008,0.153,-2.683,67.5,-0.183
-0.44,-0.997,0.112,-2.622,64.512,-1.463
-0.478,-0.985,0.092,-4.085,54.573,-2.073
-0.421,-0.966,0.06,-6.28,47.805,0.427
-0.374,-0.962,0.026,-6.037,47.439,2.622
-0.33,-0.974,0.016,-4.451,51.037,4.512
-0.301,-0.96,0.006,-3.72,58.415,6.707
-0.307,-0.952,0.004,-2.317,69.024,7.988
-0.329,-0.953,0.034,-1.89,78.11,8.293
-0.345,-0.95,0.036,-2.134,81.037,8.78
-0.376,-0.952,0.036,-2.622,77.927,9.085
-0.377,-0.961,0.023,-2.988,71.951,9.695
-0.37,-0.963,-0.043,-1.768,64.695,10.122
-0.478,-0.957,-0.098,1.159,55.549,7.195
-0.561,-0.966,-0.104,3.415,46.28,1.768
-0.5,-0.956,-0.078,4.39,46.585,-1.707
-0.441,-0.929,-0.06,7.073,53.293,-4.878
-0.439,-0.906,-0.033,7.561,56.098,-6.28
-0.448,-0.87,0.005,4.268,51.341,-4.512
-0.458,-0.839,-0.012,0.305,44.39,-2.073
-0.45,-0.858,-0.052,-1.159,38.171,-1.89
-0.411,-0.895,-0.079,-0.793,33.902,-0.488
-0.387,-0.916,-0.115,1.463,31.646,2.195
-0.407,-0.943,-0.122,4.634,27.622,3.11
-0.455,-0.949,-0.114,5.793,21.707,2.561
-0.479,-0.945,-0.096,5.793,16.951,1.402
-0.466,-0.946,-0.056,5.61,15.244,0.915
-0.454,-0.943,-0.016,4.939,17.012,0.671
-0.453,-0.93,0.014,4.085,19.085,0.305
-0.467,-0.914,0.007,1.159,15.244,0.732
-0.496,-0.919,-0.029,-1.159,7.134,1.098
-0.508,-0.94,-0.053,-1.768,-1.646,-0.183
-0.475,-0.946,-0.062,-1.707,-7.195,-0.488
-0.44,-0.932,-0.051,-1.707,-8.598,0.671
-0.439,-0.923,-0.039,-2.073,-7.927,0.549
-0.425,-0.92,-0.038,-2.378,-5.183,-0.366
-0.432,-0.917,-0.046,-2.5,-0.671,-1.22
-0.454,-0.903,-0.046,-3.11,1.341,-2.317
-0.463,-0.881,-0.051,-4.756,-0.488,-2.866
-0.441,-0.869,-0.058,-6.28,-3.537,-2.073
-0.427,-0.873,-0.075,-7.439,-5.793,-1.28
-0.437,-0.884,-0.074,-8.293,-10.122,-0.915
-0.443,-0.874,-0.089,-9.207,-17.683,-0.061
-0.438,-0.884,-0.11,-8.232,-24.512,0.793
-0.434,-0.902,-0.108,-7.012,-29.268,1.159
-0.449,-0.913,-0.098,-6.585,-32.5,0.732
-0.461,-0.923,-0.079,-6.28,-33.293,-0.793
-0.467,-0.923,-0.063,-6.585,-32.317,-2.988
-0.479,-0.936,-0.063,-6.037,-32.073,-6.037
-0.482,-0.953,-0.066,-5.244,-32.256,-8.232
-0.489,-0.964,-0.077,-4.146,-32.927,-10.244
-0.506,-0.975,-0.098,-1.585,-35.854,-12.561
-0.537,-0.975,-0.106,1.707,-40.0,-14.695
-0.496,-0.976,-0.091,3.963,-44.329,-14.817
-0.407,-0.961,-0.065,4.573,-42.988,-11.28
-0.343,-0.949,-0.019,4.878,-36.28,-7.195
-0.31,-0.927,0.041,2.561,-30.366,-3.354
-0.316,-0.883,0.068,-1.768,-28.049,0.122
-0.309,-0.861,0.054,-5.793,-28.78,4.024
-0.338,-0.862,0.016,-7.866,-30.671,7.5
-0.418,-0.883,-0.039,-7.378,-35.061,7.012
-0.454,-0.908,-0.068,-5.732,-44.024,5.0
-0.476,-0.914,-0.077,-5.122,-53.902,3.78
-0.47,-0.919,-0.061,-4.939,-60.0,2.439
-0.428,-0.924,-0.032,-4.756,-55.61,2.012
-0.36,-0.93,0.015,-4.39,-39.207,2.439
-0.319,-0.924,0.054,-4.939,-19.268,2.622
-0.329,-0.906,0.052,-6.463,-6.098,3.232
-0.389,-0.898,0.02,-7.988,-1.524,3.78
-0.43,-0.916,-0.011,-7.927,-1.646,4.329
-0.434,-0.93,-0.021,-7.256,-2.378,5.915
-0.432,-0.927,-0.016,-7.561,-3.902,7.683
-0.46,-0.928,-0.025,-7.805,-4.573,6.463
-0.481,-0.938,-0.037,-7.012,-4.756,3.232
-0.491,-0.93,-0.04,-6.707,-4.39,0.793
-0.456,-0.928,-0.022,-6.585,-2.012,-0.427
-0.413,-0.933,0.007,-7.012,2.134,-0.244
-0.42,-0.927,0.009,-8.171,5.183,-0.427
-0.435,-0.931,-0.006,-8.598,5.488,-0.793
-0.434,-0.94,-0.027,-8.841,5.61,-0.732
-0.419,-0.942,-0.036,-8.537,6.524,0.061
-0.395,-0.929,-0.037,-7.866,8.72,1.707
-0.374,-0.92,-0.04,-7.012,11.28,3.171
-0.351,-0.931,-0.033,-6.22,12.988,4.878
-0.358,-0.946,-0.039,-5.488,13.232,6.28
-0.386,-0.963,-0.043,-4.756,13.11,6.646
-0.408,-0.982,-0.033,-5.0,12.866,5.61
-0.428,-0.985,-0.032,-4.939,12.805,3.902
-0.433,-0.987,-0.048,-3.659,13.232,3.171
-0.422,-0.992,-0.031,-2.378,15.183,2.744
-0.415,-0.998,-0.032,-0.793,18.11,2.683
-0.432,-1.011,-0.038,1.951,19.695,2.622
-0.428,-1.027,-0.056,5.793,19.024,2.439
-0.42,-1.045,-0.067,10.976,17.439,3.232
-0.445,-1.055,-0.064,15.488,10.366,3.354
-0.518,-1.042,0.001,15.366,-3.537,2.378
-0.559,-0.985,0.114,8.537,-16.89,0.61
-0.518,-0.935,0.111,2.866,-17.927,-2.256
-0.428,-0.96,0.084,2.5,-7.866,-4.39
-0.351,-0.985,0.043,3.171,3.415,-2.927
-0.358,-0.992,-0.011,4.756,8.963,-0.732
-0.387,-1.003,-0.036,7.622,7.744,0.427
-0.391,-1.012,-0.046,9.573,2.317,1.951
-0.447,-1.008,-0.068,11.341,-3.598,1.28
-0.445,-0.998,-0.089,14.085,-6.829,0.549
-0.382,-0.978,-0.071,16.463,-3.476,2.256
-0.354,-0.951,-0.051,18.232,1.951,3.963
-0.398,-0.933,-0.03,19.207,4.573,4.268
-0.442,-0.913,0.001,17.805,4.512,2.866
-0.444,-0.898,0.018,15.427,5.366,1.341
-0.426,-0.9,0.027,13.659,8.841,0.61
-0.413,-0.898,0.034,12.073,12.439,0.183
-0.414,-0.882,0.031,9.756,13.659,0.061
-0.433,-0.88,0.012,7.683,11.768,-0.183
-0.45,-0.901,-0.004,7.012,7.988,-1.22
-0.442,-0.924,-0.019,7.195,5.488,-2.073
-0.428,-0.942,-0.021,7.622,5.427,-2.561
-0.424,-0.944,-0.014,8.049,6.768,-2.866
-0.421,-0.944,0.001,8.537,7.561,-2.988
-0.446,-0.947,0.02,7.805,4.878,-3.78
-0.476,-0.935,0.017,6.402,-0.61,-4.817
-0.479,-0.928,0.033,4.939,-5.488,-4.817
-0.46,-0.927,0.044,3.659,-7.622,-4.634
-0.457,-0.929,0.037,3.171,-8.11,-5.671
-0.428,-0.934,0.018,3.841,-7.134,-5.305
-0.4,-0.938,0.02,4.39,-5.305,-3.598
-0.423,-0.934,0.036,3.963,-5.549,-3.049
-0.466,-0.927,0.032,2.683,-8.902,-3.902
-0.481,-0.92,0.038,1.463,-12.683,-5.061
-0.478,-0.917,0.028,0.671,-15.488,-6.22
-0.502,-0.917,0.014,0.427,-17.5,-8.171
-0.499,-0.913,0.003,0.305,-18.659,-10.427
-0.442,-0.9,-0.004,0.305,-18.232,-10.549
-0.396,-0.889,0.002,-0.366,-16.341,-8.902
-0.379,-0.891,-0.005,-0.793,-15.061,-7.317
-0.392,-0.887,-0.024,-0.488,-15.793,-6.707
-0.435,-0.889,-0.04,0.122,-19.512,-7.012
-0.463,-0.883,-0.057,0.732,-24.146,-7.561
-0.473,-0.875,-0.063,1.098,-28.415,-8.232
-0.458,-0.873,-0.06,1.463,-32.256,-7.927
-0.411,-0.871,-0.032,0.793,-35.488,-5.793
-0.381,-0.862,-0.027,0.0,-38.72,-2.866
-0.388,-0.861,-0.019,-0.305,-43.963,-0.244
-0.388,-0.862,-0.01,-1.646,-49.146,2.988
-0.375,-0.87,-0.018,-1.341,-48.476,5.793
-0.353,-0.887,0.001,-0.305,-41.768,7.195
-0.344,-0.899,0.02,-0.122,-33.72,7.744
-0.377,-0.92,0.02,0.61,-29.207,7.012
-0.424,-0.95,0.036,0.793,-30.244,5.427
-0.453,-0.96,0.045,-0.488,-34.817,4.329
-0.454,-0.965,0.053,-1.341,-38.171,4.146
-0.426,-0.965,0.079,-1.22,-38.11,4.085
-0.402,-0.955,0.089,-1.159,-36.524,4.207
-0.402,-0.939,0.079,-0.549,-33.232,4.634
-0.4,-0.949,0.084,0.854,-28.354,5.061
-0.362,-0.953,0.089,1.829,-20.0,6.098
-0.33,-0.955,0.092,2.683,-9.329,7.5
-0.341,-0.948,0.095,2.866,-1.159,8.415
-0.386,-0.93,0.092,1.89,1.098,8.963
-0.417,-0.921,0.09,0.366,-0.122,9.512
-0.434,-0.919,0.091,-1.341,-2.073,9.024
-0.453,-0.92,0.086,-2.744,-5.183,7.561
-0.453,-0.924,0.083,-3.659,-7.012,6.585
-0.44,-0.92,0.076,-3.841,-4.268,5.61
-0.425,-0.926,0.068,-3.171,2.5,3.598
-0.407,-0.936,0.063,-1.89,9.512,2.073
-0.396,-0.94,0.061,-0.976,14.024,1.646
-0.399,-0.947,0.056,-0.549,17.012,2.073
-0.394,-0.951,0.069,-0.305,19.512,2.927
-0.383,-0.938,0.082,-0.854,22.073,4.39
-0.39,-0.929,0.088,-1.707,23.72,5.549
-0.388,-0.932,0.096,-2.317,26.037,6.22
-0.372,-0.943,0.095,-2.927,31.28,6.829
-0.36,-0.95,0.089,-3.293,37.805,7.317
-0.366,-0.961,0.09,-3.11,44.085,7.988
-0.384,-0.968,0.081,-2.561,49.756,7.927
-0.388,-0.983,0.047,-0.305,54.329,7.683
-0.398,-1.006,0.012,2.988,55.488,7.683
-0.452,-1.013,0.038,4.451,49.512,7.073
-0.496,-0.984,0.081,2.805,41.463,6.768
-0.493,-0.956,0.104,0.488,39.207,5.671
-0.467,-0.95,0.123,-1.037,42.317,3.78
-0.442,-0.951,0.13,-2.927,47.5,2.805
-0.442,-0.951,0.119,-5.061,52.744,2.195
-0.455,-0.951,0.086,-6.098,55.549,1.341
-0.456,-0.959,0.077,-6.707,54.695,1.28
-0.431,-0.954,0.032,-6.951,51.341,2.744
-0.427,-0.958,-0.03,-4.695,46.951,3.902
-0.433,-0.975,-0.054,-2.073,42.073,4.085
-0.432,-0.968,-0.058,-0.061,39.573,4.451
-0.426,-0.954,-0.051,2.256,40.671,4.268
-0.437,-0.929,-0.033,3.415,43.232,2.744
-0.471,-0.902,-0.033,3.049,44.573,-0.366
-0.505,-0.885,-0.029,1.707,43.232,-3.78
-0.519,-0.877,-0.01,-1.098,39.634,-6.341
-0.502,-0.878,0.002,-4.207,37.927,-7.622
-0.48,-0.894,-0.011,-4.634,39.512,-8.902
-0.469,-0.92,-0.025,-3.293,39.024,-9.634
-0.479,-0.924,-0.05,-3.232,34.207,-9.451
-0.503,-0.918,-0.087,-3.232,25.976,-9.451
-0.476,-0.919,-0.118,-1.951,19.268,-8.415
-0.436,-0.926,-0.121,0.183,16.829,-6.037
-0.408,-0.934,-0.102,1.829,16.951,-4.268
-0.415,-0.923,-0.09,2.378,17.988,-3.476
-0.439,-0.912,-0.062,1.89,18.171,-3.293
-0.452,-0.903,-0.016,0.122,19.39,-3.11
-0.445,-0.902,0.003,-1.463,20.976,-3.232
-0.431,-0.913,-0.007,-2.317,20.671,-2.744
-0.438,-0.93,-0.02,-3.476,16.585,-1.768
-0.463,-0.932,-0.036,-4.939,10.671,-1.22
-0.456,-0.939,-0.058,-5.061,6.037,-1.341
-0.424,-0.952,-0.091,-2.927,3.598,-1.037
-0.429,-0.959,-0.1,-0.793,1.829,-0.854
-0.458,-0.957,-0.091,0.61,-1.159,-1.89
-0.484,-0.949,-0.087,1.707,-4.634,-3.72
-0.491,-0.939,-0.071,2.134,-7.744,-5.427
-0.473,-0.926,-0.057,1.585,-9.146,-6.524
-0.454,-0.918,-0.058,1.646,-10.061,-7.256
-0.448,-0.91,-0.057,1.585,-11.341,-7.5
-0.445,-0.901,-0.048,1.037,-13.049,-7.622
-0.432,-0.9,-0.044,0.0,-14.39,-7.927
-0.427,-0.898,-0.044,-1.098,-14.939,-7.927
-0.43,-0.897,-0.045,-2.073,-15.305,-8.171
-0.425,-0.901,-0.058,-2.134,-16.159,-7.927
-0.434,-0.911,-0.06,-1.829,-18.902,-7.988
-0.461,-0.918,-0.058,-2.378,-23.415,-9.024
-0.502,-0.918,-0.058,-3.232,-29.512,-11.707
-0.544,-0.912,-0.072,-3.72,-36.524,-15.366
-0.54,-0.915,-0.085,-3.598,-42.134,-17.927
-0.485,-0.931,-0.088,-2.317,-44.451,-18.72
-0.524,-0.946,-0.118,0.244,-45.915,-21.585
-0.568,-0.975,-0.146,4.207,-51.463,-25.854
-0.515,-0.976,-0.143,7.866,-54.878,-25.976
-0.435,-0.954,-0.104,10.549,-52.256,-22.683
-0.273,-0.933,-0.006,10.305,-46.22,-14.268
-0.132,-0.9,0.069,5.793,-36.524,-3.171
-0.118,-0.9,0.09,2.073,-26.768,4.329
-0.16,-0.921,0.108,-1.22,-20.183,9.39
-0.281,-0.908,0.069,-4.756,-18.902,11.402
-0.43,-0.914,0.007,-5.244,-23.415,8.598
-0.49,-0.926,-0.025,-5.122,-30.61,4.573
-0.497,-0.934,-0.05,-4.695,-37.561,1.707
-0.507,-0.95,-0.077,-2.439,-42.927,-1.768
-0.495,-0.968,-0.09,1.037,-45.366,-4.573
-0.45,-0.982,-0.064,4.634,-40.854,-6.402
-0.372,-0.986,-0.009,7.561,-30.061,-6.402
-0.312,-0.979,0.041,8.963,-16.585,-4.939
-0.276,-0.973,0.076,8.902,-4.573,-2.622
-0.303,-0.953,0.09,6.707,-0.244,-0.488
-0.387,-0.926,0.087,3.72,-5.061,0.0
-0.43,-0.916,0.069,0.305,-14.268,0.061
-0.423,-0.92,0.039,-1.341,-19.329,0.061
-0.392,-0.941,0.029,-1.524,-19.268,-0.61
-0.367,-0.943,0.029,-2.378,-16.098,-0.305
-0.382,-0.941,0.009,-2.622,-12.256,-0.61
-0.385,-0.953,-0.009,-0.854,-9.634,-2.073
-0.371,-0.963,-0.006,0.549,-8.415,-1.768
-0.348,-0.956,0.012,0.976,-5.915,0.061
-0.337,-0.947,0.032,1.098,-1.768,1.22
-0.366,-0.937,0.04,0.854,1.951,1.402
-0.384,-0.939,0.025,0.915,3.354,0.793
-0.386,-0.951,0.04,0.793,4.207,0.976
-0.38,-0.947,0.055,-0.549,5.732,1.159
-0.383,-0.939,0.035,-1.28,7.683,0.854
-0.387,-0.952,0.032,-0.976,9.146,0.549
-0.371,-0.964,0.039,-0.976,11.22,1.098
-0.344,-0.976,0.047,-0.549,15.732,1.951
-0.334,-0.987,0.053,0.305,20.854,2.317
-0.355,-0.992,0.054,0.488,23.293,2.622
-0.38,-1.003,0.04,1.037,21.341,2.988
-0.394,-1.019,0.035,2.439,18.11,3.537
-0.382,-1.023,0.047,3.78,17.317,4.329
-0.344,-1.015,0.054,4.573,19.878,5.793
-0.333,-1.002,0.064,4.695,23.72,7.134
-0.356,-0.996,0.069,4.085,27.195,7.378
-0.376,-0.986,0.064,2.561,29.512,6.646
-0.411,-0.979,0.056,1.402,29.756,4.878
-0.417,-0.973,0.077,-0.427,30.244,4.512
-0.388,-0.949,0.081,-2.866,32.988,6.159
-0.377,-0.941,0.04,-3.537,35.793,6.585
-0.394,-0.958,-0.003,-2.134,37.073,5.488
-0.406,-0.969,-0.019,-0.671,36.768,4.573
-0.399,-0.965,-0.037,0.183,37.256,4.085
-0.388,-0.955,-0.055,1.951,39.512,3.841
-0.395,-0.944,-0.039,3.232,42.317,3.293
-0.404,-0.926,-0.021,2.5,44.878,2.744
-0.407,-0.914,-0.011,1.951,47.744,2.073
-0.394,-0.911,0.017,0.976,50.854,2.317
-0.372,-0.901,0.025,-1.646,54.024,3.902
-0.366,-0.916,0.002,-2.866,57.317,5.488
-0.364,-0.946,-0.017,-2.317,60.183,5.915
-0.36,-0.965,-0.048,-0.976,61.585,6.463
-0.396,-0.965,-0.081,0.488,60.061,6.829
-0.479,-0.957,-0.12,2.561,54.695,3.841
-0.547,-0.96,-0.145,5.61,45.366,-0.488
-0.578,-0.956,-0.114,6.768,35.061,-3.354
-0.572,-0.933,-0.062,5.427,26.341,-5.305
-0.545,-0.91,-0.024,3.232,22.012,-6.951
-0.5,-0.907,-0.037,1.829,21.037,-8.171
-0.444,-0.93,-0.058,1.829,21.463,-7.927
-0.393,-0.942,-0.071,2.866,22.317,-6.098
-0.38,-0.94,-0.074,3.415,21.402,-4.268
-0.383,-0.935,-0.086,3.598,17.561,-2.683
-0.404,-0.931,-0.099,4.207,11.463,-2.073
-0.417,-0.929,-0.093,4.207,4.939,-1.524
-0.426,-0.929,-0.077,3.963,-0.122,-1.402
-0.441,-0.938,-0.059,3.841,-4.756,-2.622
-0.46,-0.938,-0.056,3.354,-8.598,-4.024
-0.463,-0.938,-0.08,3.659,-10.854,-5.0
-0.448,-0.948,-0.091,5.061,-11.585,-6.341
-0.417,-0.944,-0.076,5.976,-12.317,-5.671
-0.388,-0.93,-0.071,5.671,-13.049,-3.476
-0.377,-0.937,-0.07,6.829,-13.476,-2.439
-0.389,-0.942,-0.048,7.317,-15.122,-2.073
-0.389,-0.93,-0.03,6.098,-17.012,-0.793
-0.382,-0.929,-0.024,5.488,-16.646,-0.305
-0.385,-0.941,-0.014,4.878,-14.878,-0.61
-0.384,-0.946,-0.02,3.72,-10.854,-0.915
-0.403,-0.95,-0.03,3.537,-5.976,-2.622
-0.416,-0.952,-0.053,3.902,-2.988,-4.085
-0.401,-0.962,-0.055,4.878,-2.866,-3.841
-0.389,-0.954,-0.037,4.451,-3.537,-3.293
-0.419,-0.944,-0.03,4.512,-5.366,-4.878
-0.442,-0.936,-0.024,3.963,-11.098,-5.61
-0.438,-0.921,-0.04,2.622,-16.585,-4.817
-0.43,-0.934,-0.053,2.988,-19.024,-5.244
-0.413,-0.944,-0.045,3.476,-19.085,-5.427
-0.396,-0.938,-0.031,3.11,-17.439,-5.427
-0.4,-0.935,-0.031,2.927,-15.793,-5.671
-0.414,-0.926,-0.027,2.5,-15.793,-6.22
-0.429,-0.921,-0.025,2.195,-18.72,-6.829
-0.441,-0.921,-0.024,1.524,-24.024,-7.012
-0.443,-0.914,-0.033,0.61,-29.756,-7.317
-0.45,-0.908,-0.064,0.488,-34.573,-8.293
-0.417,-0.917,-0.078,1.89,-36.402,-7.988
-0.313,-0.916,-0.06,2.744,-32.5,-3.902
-0.263,-0.907,-0.037,4.024,-25.793,-0.183
-0.303,-0.904,-0.023,4.146,-21.768,1.098
-0.329,-0.908,-0.013,3.049,-19.207,2.012
-0.328,-0.914,-0.009,2.622,-15.244,3.354
-0.333,-0.923,0.003,2.561,-11.28,4.695
-0.336,-0.924,0.028,1.646,-9.573,6.22
-0.361,-0.925,0.04,0.122,-11.037,6.829
-0.409,-0.938,0.021,-0.549,-15.305,5.61
-0.431,-0.963,0.007,-0.366,-20.488,4.207
-0.424,-0.98,0.013,-0.305,-22.439,3.78
-0.406,-0.988,0.007,0.427,-19.512,3.598
-0.404,-0.986,0.005,1.89,-13.841,2.866
-0.41,-0.974,0.025,2.195,-9.024,2.256
-0.399,-0.953,0.031,1.768,-6.463,2.5
-0.427,-0.935,0.03,0.854,-7.683,2.256
-0.471,-0.921,0.029,-0.976,-11.768,1.28
-0.453,-0.916,0.019,-2.378,-14.756,1.402
-0.422,-0.913,0.006,-2.5,-15.488,2.439
-0.404,-0.921,0.0,-1.707,-14.207,3.415
-0.379,-0.924,0.009,-1.463,-12.256,4.39
-0.389,-0.917,0.007,-1.768,-9.512,4.451
-0.395,-0.918,0.015,-1.951,-6.524,4.329
-0.389,-0.916,0.018,-2.561,-3.049,4.024
-0.392,-0.918,0.032,-3.598,-1.037,3.11
-0.393,-0.921,0.047,-5.488,0.305,2.805
-0.402,-0.929,0.039,-7.317,1.159,2.012
-0.407,-0.952,0.023,-8.049,1.098,0.732
-0.398,-0.968,0.021,-8.232,1.22,0.183
-0.395,-0.973,0.019,-7.866,2.012,-0.854
-0.38,-0.981,0.026,-6.28,3.476,-1.341
-0.33,-0.982,0.063,-6.159,6.037,0.366
-0.296,-0.962,0.069,-7.134,10.366,2.927
-0.333,-0.962,0.037,-6.098,13.049,3.232
-0.384,-0.984,0.023,-4.939,12.622,2.439
-0.386,-0.996,0.019,-4.329,11.28,2.622
-0.381,-0.996,0.028,-3.415,11.159,2.805
-0.378,-0.995,0.03,-2.439,12.622,2.866
-0.373,-1.002,0.038,-1.585,16.159,3.232
-0.356,-1.006,0.039,-0.61,21.22,3.963
-0.361,-1.005,0.043,0.61,24.329,4.939
-0.397,-0.994,0.042,0.915,22.073,5.671
-0.406,-0.982,0.037,0.244,18.598,6.829
-0.397,-0.987,0.032,0.427,17.988,6.463
-0.396,-1.0,0.027,1.28,17.622,5.732
-0.408,-0.997,0.027,1.037,16.524,5.549
-0.413,-0.991,0.025,0.793,16.463,4.573
-0.42,-0.987,0.018,1.28,16.951,3.049
-0.422,-0.982,0.013,1.463,16.646,2.866
-0.41,-0.976,-0.001,1.707,16.646,3.354
-0.404,-0.974,-0.021,2.744,17.073,3.415
-0.401,-0.971,-0.037,4.085,17.256,3.537
-0.403,-0.967,-0.043,5.183,17.134,4.024
-0.405,-0.958,-0.049,6.524,17.073,4.451
-0.403,-0.948,-0.048,7.439,16.646,4.756
-0.407,-0.936,-0.039,7.5,16.402,4.573
-0.429,-0.924,-0.038,7.317,16.524,2.805
-0.44,-0.926,-0.032,7.439,16.829,0.671
-0.438,-0.921,-0.017,6.89,17.073,-0.488
-0.442,-0.907,-0.017,5.732,16.159,-1.585
-0.451,-0.903,-0.014,4.512,15.244,-2.561
-0.454,-0.898,-0.008,2.561,14.146,-3.659
-0.452,-0.899,-0.033,1.646,11.646,-4.329
-0.427,-0.913,-0.043,1.707,8.476,-3.476
-0.413,-0.92,-0.052,1.829,5.976,-2.744
-0.429,-0.932,-0.053,2.622,2.866,-3.171
-0.445,-0.936,-0.048,3.293,-0.854,-3.537
-0.464,-0.926,-0.037,3.293,-4.207,-4.695
-0.475,-0.918,-0.028,2.927,-8.78,-5.671
-0.47,-0.912,-0.008,2.073,-13.11,-5.061
-0.454,-0.905,-0.001,0.0,-15.976,-5.061
-0.448,-0.918,-0.004,-0.915,-17.866,-5.915
-0.437,-0.925,0.005,-1.22,-18.293,-6.463
-0.42,-0.922,0.009,-2.439,-17.439,-6.463
-0.41,-0.917,0.007,-3.476,-16.037,-5.976
-0.426,-0.914,0.004,-4.634,-17.622,-5.793
-0.442,-0.914,-0.015,-5.488,-22.012,-5.61
-0.455,-0.918,-0.029,-5.976,-27.988,-6.341
-0.471,-0.928,-0.041,-6.22,-35.61,-7.805
-0.475,-0.928,-0.039,-6.463,-45.122,-8.537
-0.462,-0.917,-0.024,-7.195,-55.366,-8.293
-0.478,-0.905,-0.029,-8.293,-66.159,-9.695
