acc_x_axis_g,acc_y_axis_g,acc_z_axis_g,gyr_x_axis_deg/s,gyr_y_axis_deg/s,gyr_z_axis_deg/s
-0.325,0.547,0.232,-23.354,133.354,61.22
-0.322,0.632,0.246,-13.11,128.659,51.159
-0.369,0.75,0.267,-5.305,125.854,41.341
-0.485,0.841,0.268,1.89,124.634,31.28
-0.517,0.951,0.287,12.012,122.073,21.829
-0.563,1.091,0.329,20.732,117.927,13.841
-0.614,1.189,0.388,28.11,111.646,5.244
-0.584,1.236,0.497,32.561,108.78,-3.902
-0.498,1.286,0.605,35.793,103.476,-13.232
-0.468,1.338,0.64,34.329,92.683,-20.732
-0.416,1.366,0.681,28.78,84.146,-23.963
-0.257,1.369,0.702,20.793,72.317,-30.366
-0.125,1.343,0.699,11.341,55.976,-29.451
-0.06,1.268,0.696,3.963,36.646,-26.159
-0.001,1.156,0.688,-3.659,11.829,-21.341
0.118,1.059,0.647,-9.512,-18.171,-13.902
0.234,1.004,0.598,-11.585,-43.293,-2.561
0.308,0.981,0.535,-12.561,-61.402,8.841
0.38,0.975,0.469,-10.671,-76.463,18.72
0.371,0.933,0.375,-7.195,-85.366,28.171
0.295,0.86,0.272,-3.72,-87.805,34.39
0.282,0.825,0.191,-1.829,-87.5,36.707
0.287,0.794,0.112,-1.585,-88.78,37.256
0.273,0.731,0.056,-0.244,-92.195,34.695
0.234,0.667,0.009,2.805,-93.415,30.976
0.199,0.627,-0.045,5.976,-87.744,30.549
0.143,0.597,-0.108,8.293,-72.073,33.537
0.056,0.558,-0.113,8.049,-47.988,32.866
-0.083,0.494,-0.081,8.537,-21.951,27.012
-0.213,0.464,-0.005,10.427,2.744,22.317
-0.341,0.456,0.083,9.451,25.854,16.463
-0.502,0.425,0.198,5.915,50.854,9.39
-0.654,0.408,0.261,1.89,74.39,1.585
-0.695,0.486,0.299,-3.476,94.939,-5.671
-0.708,0.586,0.323,-9.817,111.159,-11.89
-0.726,0.702,0.307,-16.159,124.573,-17.622
-0.714,0.843,0.304,-19.939,135.0,-23.476
-0.681,0.984,0.353,-18.537,139.207,-27.927
-0.65,1.104,0.426,-16.829,141.22,-28.963
-0.586,1.204,0.478,-11.646,140.0,-31.463
-0.491,1.322,0.509,-3.293,132.256,-32.805
-0.424,1.453,0.524,6.707,115.976,-31.524
-0.358,1.545,0.525,12.927,94.756,-31.037
-0.252,1.585,0.53,17.5,68.415,-31.829
-0.129,1.567,0.54,21.037,40.122,-30.183
0.023,1.467,0.537,23.11,14.573,-27.012
0.211,1.31,0.539,22.439,-7.927,-20.183
0.359,1.179,0.545,20.915,-28.598,-9.695
0.397,1.073,0.53,20.549,-44.878,3.293
0.357,0.975,0.452,20.793,-55.305,16.524
0.326,0.896,0.367,18.049,-62.439,27.744
0.304,0.834,0.287,13.171,-70.122,36.585
0.23,0.771,0.185,7.439,-77.439,42.927
0.19,0.726,0.101,-0.427,-82.622,46.341
0.155,0.676,0.032,-6.646,-86.22,45.671
0.086,0.611,-0.022,-9.085,-86.463,42.805
0.021,0.558,-0.052,-9.634,-81.829,38.11
-0.053,0.521,-0.07,-10.244,-70.732,31.28
-0.105,0.492,-0.041,-10.671,-52.256,24.329
-0.185,0.471,0.012,-10.976,-23.72,18.659
-0.293,0.449,0.103,-10.244,9.39,12.5
-0.408,0.455,0.184,-8.78,41.22,7.317
-0.543,0.476,0.245,-8.659,65.915,2.439
-0.639,0.546,0.293,-9.268,80.549,-2.866
-0.685,0.633,0.303,-10.976,87.866,-9.085
-0.7,0.73,0.324,-13.232,88.72,-15.61
-0.706,0.823,0.342,-14.573,87.805,-21.951
-0.684,0.918,0.349,-15.61,90.732,-27.256
-0.666,1.038,0.368,-15.61,96.585,-30.671
-0.654,1.144,0.407,-11.341,100.915,-32.683
-0.603,1.216,0.44,-5.488,101.159,-33.171
-0.508,1.29,0.466,2.317,92.927,-33.171
-0.409,1.372,0.466,9.756,76.646,-32.622
-0.268,1.454,0.448,15.427,58.293,-31.098
-0.131,1.512,0.45,20.183,37.622,-28.72
0.001,1.493,0.464,22.195,17.195,-23.659
0.157,1.401,0.468,22.866,-0.488,-16.402
0.289,1.308,0.46,21.951,-17.195,-8.232
0.367,1.219,0.462,18.72,-33.415,-0.366
0.403,1.103,0.469,16.402,-49.878,8.598
0.395,0.976,0.46,14.451,-62.378,18.841
0.326,0.874,0.421,12.927,-70.122,29.024
0.276,0.793,0.36,11.463,-74.756,38.171
0.235,0.728,0.274,7.439,-75.854,43.659
0.172,0.688,0.197,2.317,-77.195,45.793
0.084,0.663,0.102,-0.732,-76.951,45.793
0.024,0.607,0.022,-3.72,-72.439,43.659
-0.008,0.575,-0.028,-8.232,-63.232,38.902
-0.058,0.563,-0.047,-12.195,-48.78,31.646
-0.109,0.533,-0.059,-14.878,-31.28,23.354
-0.159,0.517,-0.058,-15.549,-12.927,15.671
-0.218,0.495,-0.05,-13.78,6.28,9.512
-0.272,0.494,-0.018,-10.976,27.378,4.207
-0.393,0.527,0.035,-8.476,44.39,0.244
-0.515,0.555,0.119,-6.28,55.366,-4.573
-0.593,0.615,0.225,-3.415,62.012,-9.451
-0.676,0.692,0.326,-2.622,67.073,-14.817
-0.739,0.763,0.408,-4.268,69.939,-22.439
-0.751,0.852,0.463,-6.463,72.744,-29.085
-0.736,0.945,0.492,-11.037,78.902,-33.78
-0.711,1.03,0.53,-12.561,86.28,-35.915
-0.653,1.139,0.548,-11.646,91.524,-36.098
-0.57,1.254,0.536,-8.902,91.28,-36.341
-0.497,1.342,0.527,-3.72,81.585,-34.695
-0.396,1.424,0.503,2.134,65.671,-32.439
-0.246,1.506,0.464,7.256,45.61,-30.0
-0.112,1.531,0.429,12.256,22.988,-25.183
0.026,1.477,0.399,16.829,0.854,-17.683
0.186,1.383,0.386,19.878,-17.866,-10.305
0.299,1.297,0.373,22.439,-35.0,-1.707
0.347,1.2,0.351,23.841,-50.244,8.11
0.402,1.082,0.347,22.744,-60.61,17.866
0.454,0.961,0.338,20.976,-65.488,28.354
0.418,0.835,0.3,17.683,-66.463,38.232
0.309,0.745,0.239,12.195,-66.951,45.061
0.236,0.694,0.206,4.939,-68.598,49.085
0.186,0.62,0.167,-1.829,-70.549,49.512
0.104,0.535,0.117,-7.195,-72.256,45.549
-0.016,0.491,0.054,-13.354,-71.951,38.049
-0.116,0.469,0.019,-19.695,-66.707,28.963
-0.184,0.447,0.015,-24.573,-52.622,19.817
-0.289,0.419,0.049,-27.927,-29.085,10.183
-0.398,0.385,0.096,-28.537,-3.11,1.402
-0.465,0.38,0.145,-26.341,19.695,-7.134
-0.543,0.444,0.184,-24.39,38.72,-15.061
-0.603,0.529,0.197,-22.012,55.305,-21.159
-0.662,0.612,0.217,-17.5,67.561,-25.915
-0.713,0.734,0.272,-13.537,75.122,-31.159
-0.751,0.864,0.325,-10.732,78.171,-36.707
-0.75,0.993,0.381,-8.659,76.768,-42.378
-0.713,1.15,0.441,-9.085,74.695,-45.671
-0.676,1.281,0.474,-6.037,73.11,-47.134
-0.628,1.377,0.484,-1.402,68.354,-46.646
-0.548,1.452,0.493,3.11,57.988,-44.573
-0.424,1.474,0.504,8.537,45.854,-41.341
-0.267,1.469,0.507,14.878,34.085,-36.829
-0.087,1.434,0.497,19.085,20.183,-29.939
0.11,1.341,0.504,21.098,6.768,-21.159
0.251,1.207,0.505,22.439,-5.793,-8.537
0.313,1.077,0.496,20.915,-17.744,4.939
0.344,0.988,0.486,18.11,-29.268,17.317
0.375,0.916,0.468,15.061,-41.951,28.232
0.354,0.834,0.427,10.061,-53.902,37.256
0.289,0.75,0.337,4.756,-61.768,45.427
0.212,0.693,0.234,-0.183,-66.646,51.829
0.12,0.664,0.107,-4.329,-70.427,54.451
0.063,0.637,0.031,-8.11,-69.634,52.988
0.052,0.608,-0.008,-10.183,-65.854,47.195
0.002,0.557,-0.03,-9.939,-60.305,39.085
-0.105,0.513,-0.069,-10.427,-47.622,30.488
-0.224,0.481,-0.087,-12.378,-26.707,22.927
-0.356,0.474,-0.042,-12.5,-2.683,13.11
-0.502,0.465,0.027,-10.427,19.817,3.78
-0.632,0.481,0.09,-7.927,39.329,-3.476
-0.732,0.545,0.172,-6.402,53.354,-11.28
-0.822,0.616,0.263,-4.756,61.037,-18.659
-0.89,0.688,0.332,-4.817,66.829,-25.915
-0.886,0.772,0.385,-5.366,72.378,-31.037
-0.859,0.861,0.398,-5.732,77.195,-34.939
-0.801,0.977,0.41,-7.256,80.549,-38.232
-0.718,1.093,0.438,-9.39,81.22,-40.61
-0.59,1.188,0.459,-7.683,78.537,-41.341
-0.448,1.302,0.472,-4.512,73.598,-37.561
-0.341,1.41,0.491,0.427,65.305,-31.159
-0.204,1.466,0.458,5.305,50.061,-22.744
-0.031,1.499,0.409,10.915,29.085,-12.927
0.152,1.494,0.387,15.854,6.463,-2.317
0.35,1.426,0.393,19.939,-15.915,8.902
0.51,1.33,0.396,22.317,-38.963,20.488
0.582,1.223,0.41,22.561,-57.744,30.915
0.594,1.105,0.427,23.902,-69.878,39.817
0.568,0.989,0.46,23.537,-74.451,49.146
0.538,0.878,0.466,17.805,-74.329,54.878
0.474,0.77,0.41,11.89,-77.561,56.768
0.343,0.686,0.326,5.0,-81.159,57.317
0.196,0.643,0.212,-2.927,-83.11,54.573
0.023,0.605,0.082,-9.39,-83.049,48.354
-0.085,0.587,-0.021,-15.61,-76.159,40.122
-0.092,0.62,-0.05,-20.488,-62.927,30.488
-0.238,0.531,-0.062,-22.805,-45.976,19.695
-0.432,0.446,-0.086,-24.146,-23.293,8.415
-0.59,0.424,-0.092,-23.354,3.232,-1.037
-0.726,0.404,-0.088,-19.268,29.024,-8.598
-0.87,0.405,-0.008,-13.415,51.89,-14.451
-0.958,0.468,0.121,-9.207,68.049,-20.122
-0.949,0.505,0.249,-5.122,72.012,-28.841
-0.919,0.568,0.348,-0.183,68.232,-36.524
-0.892,0.689,0.436,-2.073,72.317,-43.659
-0.804,0.825,0.519,-4.207,79.329,-44.085
-0.645,0.976,0.563,-4.817,83.72,-41.037
-0.494,1.156,0.592,-7.134,86.463,-37.378
-0.378,1.33,0.578,-7.012,82.927,-33.171
-0.27,1.468,0.538,-5.793,69.695,-26.768
-0.182,1.564,0.495,-4.817,46.768,-19.512
-0.032,1.616,0.446,-1.098,20.061,-11.28
0.129,1.584,0.403,4.512,-8.963,-2.256
0.299,1.487,0.362,10.854,-40.366,7.256
0.474,1.401,0.333,18.293,-66.829,18.537
0.548,1.308,0.32,24.695,-82.683,30.183
0.557,1.167,0.298,29.512,-90.122,39.817
0.583,1.018,0.31,32.927,-94.085,48.476
0.594,0.885,0.35,32.805,-94.817,58.171
0.518,0.744,0.364,27.683,-93.171,64.268
0.375,0.63,0.345,18.171,-93.963,67.195
0.218,0.56,0.319,7.439,-95.61,67.5
0.06,0.497,0.25,-1.402,-93.232,64.329
-0.071,0.468,0.165,-11.768,-84.817,57.683
-0.117,0.481,0.108,-23.11,-72.134,45.793
-0.184,0.474,0.075,-31.098,-58.659,31.28
-0.288,0.417,0.043,-35.366,-40.549,16.524
-0.339,0.367,0.017,-36.768,-15.122,3.11
-0.368,0.392,-0.021,-33.72,12.073,-6.707
-0.452,0.47,-0.02,-26.829,35.915,-13.171
-0.529,0.528,0.004,-18.841,56.098,-19.146
-0.576,0.621,0.043,-10.61,66.951,-25.549
-0.613,0.778,0.138,-2.561,69.695,-31.707
-0.656,0.939,0.262,2.805,70.488,-38.598
-0.681,1.098,0.37,2.073,67.073,-43.963
-0.705,1.254,0.472,2.805,59.756,-47.683
-0.682,1.375,0.56,6.646,54.451,-49.939
-0.592,1.449,0.633,8.841,50.549,-49.634
-0.45,1.467,0.696,9.573,47.805,-48.537
-0.276,1.426,0.723,11.341,46.22,-43.78
-0.102,1.374,0.72,13.841,43.659,-35.305
0.019,1.298,0.693,14.817,37.805,-23.78
0.138,1.22,0.626,14.512,28.049,-9.939
0.223,1.176,0.545,12.866,14.024,5.305
0.266,1.139,0.462,9.573,-3.537,20.61
0.311,1.093,0.375,5.61,-25.427,34.878
0.333,1.032,0.303,2.317,-48.659,44.817
0.362,0.962,0.249,0.305,-69.085,50.244
0.355,0.875,0.186,-0.061,-81.89,53.232
0.339,0.8,0.126,-0.915,-87.805,55.305
0.31,0.731,0.068,-1.829,-87.988,55.122
0.25,0.645,0.026,-1.463,-85.122,51.707
0.193,0.563,0.014,-1.524,-78.11,47.012
0.103,0.486,-0.005,-3.171,-64.878,41.768
-0.014,0.423,-0.014,-4.329,-49.024,35.793
-0.104,0.408,0.025,-5.305,-30.732,29.451
-0.224,0.409,0.093,-6.22,-14.451,23.232
-0.345,0.381,0.134,-6.402,-0.854,17.317
-0.456,0.388,0.166,-7.195,11.768,11.22
-0.544,0.462,0.171,-9.085,24.207,4.329
-0.573,0.555,0.186,-10.366,37.317,-2.805
-0.557,0.665,0.231,-10.793,50.854,-9.756
-0.554,0.797,0.266,-9.329,64.939,-16.037
-0.549,0.956,0.294,-5.122,78.537,-21.037
-0.509,1.124,0.351,-1.89,87.378,-25.366
-0.453,1.272,0.437,-0.366,90.549,-28.78
-0.437,1.391,0.524,6.829,83.78,-31.585
-0.417,1.505,0.595,13.171,68.171,-32.988
-0.328,1.574,0.642,18.232,47.927,-34.329
-0.205,1.572,0.645,21.707,28.598,-33.902
-0.108,1.534,0.614,23.415,11.768,-30.915
0.044,1.454,0.567,24.695,-4.512,-23.415
0.224,1.351,0.519,24.939,-15.671,-12.5
0.327,1.232,0.48,23.171,-21.463,0.061
0.366,1.105,0.458,19.634,-25.854,12.317
0.404,1.006,0.431,16.768,-33.659,23.354
0.405,0.91,0.382,12.683,-45.244,31.402
0.356,0.811,0.289,6.159,-58.049,37.683
0.311,0.747,0.217,-0.976,-70.061,42.866
0.256,0.704,0.148,-7.866,-80.427,45.244
0.171,0.639,0.072,-11.585,-88.841,46.037
0.09,0.58,0.012,-13.72,-90.183,43.659
0.028,0.535,0.002,-14.878,-85.0,37.988
-0.055,0.491,-0.011,-14.817,-72.805,31.28
-0.148,0.453,0.026,-15.244,-53.171,23.171
-0.242,0.452,0.107,-15.305,-30.183,13.902
-0.338,0.429,0.2,-13.598,-4.939,4.817
-0.435,0.44,0.278,-11.28,19.695,-3.963
-0.471,0.482,0.335,-10.671,38.415,-13.354
-0.467,0.502,0.361,-10.366,49.817,-21.098
-0.44,0.509,0.375,-10.061,57.927,-27.683
-0.397,0.518,0.4,-9.634,64.024,-33.415
-0.387,0.528,0.432,-7.988,66.646,-38.476
-0.412,0.546,0.488,-8.354,64.817,-41.098
-0.415,0.565,0.547,-8.415,60.488,-44.39
-0.374,0.58,0.593,-4.268,52.561,-46.768
-0.347,0.586,0.613,0.061,40.183,-47.378
-0.354,0.593,0.611,4.878,23.049,-48.537
-0.368,0.603,0.586,11.22,2.561,-49.451
-0.376,0.62,0.542,18.78,-17.5,-50.0
-0.364,0.646,0.464,26.646,-33.963,-51.098
-0.351,0.693,0.391,36.037,-46.22,-52.561
-0.342,0.765,0.353,47.073,-53.72,-55.366
-0.329,0.804,0.298,57.561,-56.22,-58.659
-0.358,0.779,0.215,67.927,-54.878,-64.024
-0.389,0.746,0.13,78.963,-52.927,-71.22
-0.374,0.768,0.092,90.305,-54.512,-80.793
-0.338,0.823,0.088,100.793,-62.622,-92.744
-0.317,0.843,0.098,110.427,-77.744,-105.427
-0.329,0.836,0.094,119.817,-101.829,-118.11
-0.387,0.819,0.082,128.902,-134.695,-131.524
-0.472,0.817,0.095,133.78,-172.5,-148.354
-0.546,0.838,0.122,136.768,-214.695,-168.049
-0.594,0.877,0.161,140.976,-257.012,-189.878
-0.608,0.9,0.214,145.244,-293.78,-209.695
-0.59,0.872,0.239,146.28,-324.695,-226.646
-0.541,0.8,0.261,140.793,-350.366,-246.28
-0.491,0.72,0.284,130.366,-372.134,-266.768
-0.511,0.624,0.305,116.159,-391.707,-284.39
-0.562,0.508,0.352,98.11,-408.72,-300.0
-0.576,0.42,0.429,76.646,-422.5,-313.72
-0.536,0.412,0.531,49.817,-434.329,-324.939
-0.485,0.408,0.638,13.78,-440.854,-335.122
-0.529,0.424,0.754,-21.829,-440.305,-345.061
-0.703,0.374,0.793,-51.28,-434.085,-352.256
-0.878,0.3,0.845,-76.341,-422.012,-354.329
-1.033,0.223,0.889,-99.146,-407.988,-349.085
-1.1,0.149,0.9,-109.451,-390.183,-339.024
-1.027,0.135,0.91,-106.402,-365.305,-324.695
-0.888,0.148,0.933,-101.463,-332.5,-304.573
-0.741,0.199,0.885,-98.537,-292.561,-282.378
-0.617,0.159,0.869,-99.329,-240.366,-263.476
-0.491,0.092,0.946,-109.207,-192.317,-249.268
-0.356,0.05,1.028,-124.756,-160.976,-232.073
-0.289,0.016,1.053,-134.024,-157.378,-221.768
-0.318,-0.046,1.081,-133.171,-171.159,-220.183
-0.377,-0.107,1.097,-127.134,-185.61,-221.098
-0.4,-0.119,1.087,-120.244,-203.963,-214.329
-0.38,-0.09,1.076,-111.585,-209.878,-206.768
-0.37,-0.041,1.011,-106.89,-206.768,-196.707
-0.377,-0.015,0.936,-96.89,-194.268,-178.293
-0.356,-0.01,0.91,-84.634,-159.878,-160.793
-0.28,-0.011,0.768,-77.012,-113.293,-145.244
-0.36,-0.026,0.713,-70.671,-79.085,-125.366
-0.275,-0.195,1.022,-59.573,-52.439,-108.415
-0.41,-0.21,2.635,-48.171,-31.402,-93.72
-1.778,-1.536,2.661,-37.744,-14.268,-83.049
-1.728,-1.01,0.75,-30.488,0.488,-73.049
-0.489,0.314,0.593,-24.695,10.366,-65.915
-0.049,0.628,0.488,-21.159,15.305,-60.793
