acc_x_axis_g,acc_y_axis_g,acc_z_axis_g,gyr_x_axis_deg/s,gyr_y_axis_deg/s,gyr_z_axis_deg/s
-0.397,0.93,0.245,18.72,22.744,34.817
-0.355,1.072,0.158,10.549,14.085,37.805
-0.452,1.129,0.065,1.951,-5.061,39.329
-0.597,1.108,0.033,-3.049,-29.39,40.671
-0.628,1.028,0.099,-5.061,-48.293,39.512
-0.576,0.925,0.133,-2.988,-52.378,35.671
-0.41,0.81,0.255,5.671,-35.61,30.183
-0.196,0.665,0.393,17.866,-3.598,21.89
-0.097,0.564,0.443,26.707,25.854,15.183
-0.13,0.585,0.352,26.524,37.805,12.317
-0.248,0.775,0.159,19.085,35.427,12.5
-0.37,0.998,-0.044,5.122,25.732,12.378
-0.425,1.148,-0.162,-6.341,14.695,10.488
-0.374,1.167,-0.147,-12.134,14.146,9.146
-0.281,1.085,-0.082,-14.878,33.049,8.841
-0.171,1.009,-0.021,-14.573,72.744,7.866
-0.005,0.929,0.08,-12.073,121.951,0.671
0.085,0.828,0.18,-6.829,157.256,-10.732
0.035,0.702,0.298,2.012,162.805,-20.366
-0.104,0.57,0.279,10.0,146.342,-27.195
-0.284,0.493,0.16,13.476,115.0,-35.366
-0.381,0.509,0.076,14.39,77.256,-46.646
-0.378,0.576,-0.017,13.598,49.207,-55.0
-0.31,0.635,-0.109,12.134,38.902,-57.561
-0.281,0.706,-0.149,8.293,39.512,-56.707
-0.322,0.798,-0.153,5.244,40.427,-55.122
-0.371,0.851,-0.12,4.207,38.72,-50.915
-0.416,0.854,-0.099,4.329,40.61,-41.89
-0.482,0.824,-0.08,4.817,47.439,-33.171
-0.483,0.783,-0.036,5.976,54.634,-26.768
-0.487,0.745,-0.021,5.915,53.171,-20.61
-0.536,0.718,-0.039,6.524,36.22,-15.793
-0.603,0.697,-0.041,8.171,7.561,-12.012
-0.639,0.674,-0.025,8.963,-19.817,-9.146
-0.649,0.661,-0.018,12.073,-35.244,-6.646
-0.625,0.691,0.009,15.671,-32.805,-2.805
-0.545,0.782,0.025,16.829,-21.585,-0.671
-0.435,0.907,0.061,16.463,-10.183,2.195
-0.438,0.989,0.062,13.293,-9.939,5.427
-0.542,1.069,0.066,9.085,-25.732,5.915
-0.623,1.132,0.104,4.207,-49.512,6.098
-0.673,1.196,0.08,-2.012,-62.744,8.78
-0.645,1.283,0.087,-7.317,-51.098,14.085
-0.423,1.317,0.184,-13.293,-21.28,13.72
-0.274,1.319,0.3,-15.793,0.488,12.195
-0.376,1.287,0.39,-14.268,-1.28,14.878
-0.548,1.252,0.441,-10.793,-13.537,15.915
-0.539,1.222,0.452,-7.134,-19.512,10.549
-0.389,1.172,0.42,-3.11,-22.744,2.195
-0.278,1.08,0.385,2.134,-31.22,-5.976
-0.276,1.004,0.321,5.183,-42.256,-10.366
-0.364,0.992,0.256,5.0,-49.634,-9.573
-0.447,0.986,0.182,2.378,-48.963,-6.829
-0.5,0.974,0.113,-1.524,-41.707,-4.451
-0.483,0.979,0.073,-5.0,-30.976,-2.134
-0.425,0.969,0.047,-7.744,-17.195,2.256
-0.408,0.939,0.012,-9.939,-4.695,7.256
-0.395,0.917,0.0,-12.988,0.915,9.512
-0.372,0.901,-0.03,-16.098,2.378,9.573
-0.358,0.869,-0.083,-16.585,-1.463,9.329
-0.336,0.813,-0.024,-13.354,-10.671,7.805
-0.308,0.733,0.101,-7.256,-18.537,6.402
-0.323,0.652,0.154,-1.89,-21.768,6.159
-0.346,0.638,0.154,0.183,-16.89,6.585
-0.323,0.681,0.104,-0.61,-2.378,8.659
-0.341,0.724,0.042,-2.683,6.159,12.195
-0.459,0.774,-0.001,-4.634,0.793,15.305
-0.54,0.841,-0.014,-5.854,-6.585,17.744
-0.522,0.893,0.011,-6.646,-8.11,19.695
-0.429,0.922,0.032,-6.22,-8.659,18.841
-0.358,0.932,0.111,-2.439,-13.293,17.317
-0.343,0.91,0.191,1.402,-16.341,16.89
-0.364,0.899,0.175,2.622,-16.28,16.524
-0.372,0.938,0.133,2.317,-13.841,16.646
-0.365,0.985,0.117,0.671,-13.659,15.183
-0.358,0.981,0.129,-0.122,-14.512,14.207
-0.4,0.929,0.123,-0.549,-16.159,14.268
-0.418,0.9,0.121,0.488,-16.646,12.927
-0.364,0.881,0.129,2.317,-10.427,11.22
-0.29,0.85,0.098,3.476,1.524,9.695
-0.237,0.829,0.085,3.841,9.085,7.256
-0.248,0.851,0.093,4.634,10.366,6.037
-0.3,0.852,0.069,4.268,13.902,4.512
-0.287,0.812,0.021,2.378,25.427,-0.244
-0.246,0.773,-0.01,0.122,38.598,-5.854
-0.258,0.756,-0.031,-1.951,45.366,-9.695
-0.297,0.749,-0.047,-3.476,46.585,-12.988
-0.292,0.736,-0.066,-4.207,49.146,-17.561
-0.214,0.733,-0.058,-3.476,58.72,-21.89
-0.156,0.723,-0.056,-0.976,70.854,-26.098
-0.152,0.731,-0.012,2.561,76.159,-31.524
-0.16,0.768,0.038,5.488,73.537,-39.634
-0.154,0.776,0.104,9.39,64.39,-46.159
-0.145,0.734,0.126,11.159,53.354,-47.683
-0.15,0.705,0.07,10.183,39.817,-53.537
-0.115,0.72,0.04,9.695,36.646,-59.024
-0.172,0.742,-0.102,5.671,47.622,-58.049
-0.32,0.842,-0.193,0.122,63.049,-52.744
-0.472,0.97,-0.138,-2.805,81.707,-42.988
-0.602,1.016,-0.013,-3.171,98.11,-33.049
-0.764,0.977,0.133,-0.366,89.329,-27.317
-0.924,0.922,0.169,1.402,61.037,-20.915
-0.965,0.914,0.145,-0.366,30.305,-14.451
-0.873,0.938,0.165,0.0,4.207,-10.549
-0.776,0.936,0.1,-1.585,-16.829,-9.329
-0.76,0.973,0.011,-4.451,-32.988,-6.22
-0.734,1.046,0.026,-6.402,-35.854,-1.951
-0.691,1.066,0.114,-6.159,-28.902,2.866
-0.7,1.018,0.196,-4.024,-24.756,8.415
-0.733,0.967,0.282,-2.439,-25.366,14.512
-0.729,0.962,0.269,-6.037,-25.915,18.902
-0.698,1.003,0.182,-8.963,-30.183,21.037
-0.64,1.046,0.138,-12.622,-31.951,22.439
-0.547,1.099,0.129,-16.829,-29.939,22.805
-0.423,1.134,0.182,-15.427,-28.415,20.976
-0.359,1.108,0.282,-6.585,-22.378,18.293
-0.246,1.052,0.413,3.902,-13.354,10.793
-0.1,1.013,0.512,12.5,-15.488,2.195
-0.114,0.969,0.459,16.707,-30.061,-0.915
-0.256,0.96,0.28,16.159,-41.098,0.976
-0.399,1.004,0.081,10.305,-36.463,4.634
-0.428,1.036,-0.053,3.171,-22.866,4.573
-0.385,0.994,-0.069,-0.671,-5.122,4.634
-0.334,0.909,-0.055,-6.28,17.805,6.951
-0.295,0.888,-0.085,-13.293,32.744,5.244
-0.27,0.891,-0.067,-15.0,39.451,1.707
-0.285,0.823,-0.026,-13.354,50.366,-0.793
-0.25,0.741,-0.009,-9.817,64.085,-4.451
-0.191,0.673,0.042,-3.293,70.122,-7.744
-0.24,0.605,0.072,2.622,65.305,-9.207
-0.356,0.571,0.044,7.683,51.951,-12.622
-0.396,0.585,0.021,12.561,43.049,-15.244
-0.369,0.604,0.023,15.183,40.305,-16.524
-0.381,0.613,0.013,16.037,41.28,-19.207
-0.413,0.628,-0.072,14.512,46.28,-21.951
-0.423,0.678,-0.163,10.976,49.146,-24.573
-0.456,0.736,-0.181,8.537,48.659,-25.793
-0.489,0.736,-0.185,4.878,45.366,-26.037
-0.505,0.711,-0.216,1.341,31.28,-27.012
-0.592,0.703,-0.198,0.0,9.634,-25.793
-0.717,0.726,-0.175,-1.707,-12.439,-22.561
-0.774,0.79,-0.129,-2.866,-32.866,-17.134
-0.806,0.873,-0.073,-2.378,-44.207,-7.561
-0.87,0.959,-0.002,-1.89,-39.146,4.817
-0.829,1.042,0.131,0.488,-26.037,15.854
-0.766,1.091,0.213,3.11,-16.341,26.951
-0.759,1.109,0.254,4.634,-19.146,35.854
-0.741,1.116,0.245,5.0,-32.195,41.28
-0.742,1.143,0.236,4.146,-48.476,43.78
-0.679,1.189,0.244,3.537,-59.756,43.171
-0.535,1.21,0.259,3.659,-62.439,41.341
-0.377,1.199,0.293,5.305,-56.037,36.707
-0.202,1.171,0.308,8.354,-41.22,30.061
-0.052,1.12,0.338,11.524,-25.427,25.305
-0.048,1.051,0.3,13.171,-17.317,21.22
-0.164,1.018,0.175,11.341,-13.232,17.927
-0.248,1.024,0.031,5.305,-7.439,13.476
-0.219,1.041,-0.063,1.341,2.134,8.232
-0.114,0.998,-0.038,-2.622,12.378,2.683
-0.045,0.917,0.001,-6.28,19.756,-5.793
-0.045,0.81,-0.031,-7.317,30.061,-13.659
-0.076,0.692,-0.053,-7.439,49.39,-17.683
-0.145,0.591,-0.111,-7.256,70.671,-20.732
-0.245,0.52,-0.149,-5.488,84.207,-21.585
-0.375,0.475,-0.19,-5.0,86.22,-22.195
-0.478,0.465,-0.229,-3.049,74.756,-25.183
-0.527,0.454,-0.163,0.915,56.341,-27.622
-0.526,0.432,-0.096,4.512,42.5,-30.427
-0.508,0.455,-0.08,7.5,35.061,-35.0
-0.427,0.518,-0.063,9.756,31.28,-39.695
-0.403,0.589,-0.089,10.0,26.341,-41.098
-0.522,0.664,-0.15,8.72,16.829,-39.024
-0.668,0.746,-0.166,6.524,8.72,-34.146
-0.759,0.838,-0.146,3.415,5.183,-27.866
-0.791,0.908,-0.1,2.622,5.0,-20.0
-0.79,0.947,-0.06,1.22,9.207,-9.146
-0.819,1.021,-0.001,-0.671,6.646,1.402
-0.869,1.123,0.067,-2.378,-2.195,13.963
-0.923,1.2,0.108,-4.939,-13.598,27.195
-0.934,1.255,0.162,-6.402,-27.134,37.988
-0.895,1.274,0.215,-7.134,-40.305,45.061
-0.825,1.259,0.253,-6.768,-51.159,50.061
-0.722,1.226,0.253,-6.829,-57.622,52.744
-0.597,1.209,0.227,-6.524,-61.89,50.549
-0.446,1.185,0.257,-3.598,-60.671,46.524
-0.316,1.104,0.271,-0.366,-55.427,40.061
-0.207,1.025,0.285,4.268,-50.244,31.646
-0.123,0.95,0.286,8.293,-44.024,24.634
-0.111,0.895,0.216,9.024,-35.122,19.085
-0.127,0.888,0.106,7.561,-23.72,14.695
-0.122,0.917,0.016,4.756,-8.171,11.159
-0.094,0.954,-0.024,0.61,8.415,6.707
-0.075,0.966,-0.012,-1.585,19.329,0.793
-0.086,0.906,-0.012,-2.622,27.073,-5.244
-0.098,0.803,-0.039,-2.256,36.28,-10.732
-0.144,0.688,-0.023,0.671,47.805,-13.415
-0.227,0.584,-0.036,2.683,59.512,-14.451
-0.317,0.514,-0.123,3.598,64.878,-16.28
-0.366,0.491,-0.177,3.78,62.622,-18.598
-0.436,0.498,-0.18,3.72,52.805,-21.768
-0.463,0.506,-0.156,4.39,41.829,-26.098
-0.439,0.504,-0.141,5.366,32.195,-31.341
-0.435,0.54,-0.148,6.159,24.695,-35.854
-0.442,0.61,-0.166,4.695,22.317,-38.902
-0.444,0.681,-0.188,2.256,23.232,-40.61
-0.478,0.708,-0.184,2.927,17.866,-39.695
-0.564,0.736,-0.149,3.354,8.415,-34.695
-0.656,0.85,-0.146,-0.793,6.951,-24.817
-0.719,0.994,-0.128,-4.939,10.305,-15.244
-0.712,1.062,-0.061,-6.402,13.598,-5.61
-0.76,1.067,-0.005,-6.89,12.012,6.463
-0.848,1.087,0.069,-7.5,3.659,17.988
-0.897,1.137,0.139,-9.695,-10.61,28.902
-0.931,1.182,0.154,-10.549,-27.561,37.317
-0.917,1.186,0.177,-10.122,-42.927,42.622
-0.836,1.171,0.207,-8.72,-52.561,45.549
-0.713,1.132,0.239,-6.28,-58.841,45.793
-0.568,1.098,0.268,-4.634,-63.598,44.573
-0.483,1.096,0.271,-2.378,-68.415,41.28
-0.402,1.098,0.277,1.22,-67.622,35.488
-0.28,1.077,0.288,5.061,-58.415,30.0
-0.185,1.032,0.302,9.451,-52.561,24.207
-0.183,0.995,0.274,12.927,-49.329,21.707
-0.201,1.001,0.169,10.366,-37.683,20.976
-0.144,1.053,0.038,3.537,-20.854,16.707
-0.064,1.071,-0.042,-2.317,-7.744,11.159
-0.066,1.003,-0.062,-4.939,3.537,5.793
-0.059,0.903,-0.063,-7.012,20.0,-2.622
-0.001,0.817,-0.048,-6.585,37.683,-13.11
0.041,0.702,0.023,-0.061,55.427,-19.695
-0.05,0.526,0.032,5.671,68.598,-22.256
-0.21,0.395,-0.062,9.634,69.39,-24.146
-0.341,0.369,-0.156,11.524,58.659,-27.317
-0.438,0.447,-0.225,10.671,46.707,-30.488
-0.412,0.549,-0.221,8.841,41.402,-33.537
-0.357,0.591,-0.178,9.695,40.976,-37.683
-0.321,0.582,-0.152,11.341,44.512,-40.793
-0.331,0.614,-0.144,10.793,47.439,-42.622
-0.355,0.698,-0.143,7.622,47.988,-42.378
-0.463,0.755,-0.172,4.268,39.207,-39.085
-0.649,0.773,-0.192,2.622,20.061,-33.659
-0.8,0.817,-0.165,-0.122,3.476,-25.0
-0.871,0.907,-0.132,-4.085,-2.073,-14.634
-0.861,0.987,-0.095,-5.061,-0.061,-4.634
-0.841,1.015,0.0,-4.451,-1.28,5.549
-0.906,1.055,0.087,-5.488,-6.707,18.293
-0.976,1.096,0.122,-5.671,-14.695,30.671
-0.98,1.119,0.143,-5.915,-25.549,40.122
-0.912,1.165,0.171,-7.073,-39.024,46.585
-0.83,1.206,0.168,-7.866,-52.866,50.854
-0.75,1.21,0.174,-7.744,-64.146,52.988
-0.61,1.176,0.208,-6.28,-68.232,51.585
-0.469,1.132,0.245,-3.902,-66.463,47.195
-0.319,1.098,0.262,-0.671,-62.134,41.524
-0.208,1.054,0.268,4.085,-57.988,35.183
-0.16,1.0,0.257,7.988,-51.646,28.171
-0.103,0.977,0.203,9.39,-39.634,22.134
-0.061,0.97,0.136,8.78,-26.22,16.707
-0.079,0.96,0.069,7.744,-16.159,11.707
-0.114,0.952,0.001,5.671,-4.512,6.585
-0.058,0.958,-0.033,1.829,12.134,-0.427
0.002,0.938,-0.028,0.793,24.146,-8.476
0.005,0.856,-0.006,2.622,32.012,-14.756
-0.02,0.77,0.004,3.598,46.28,-18.232
-0.053,0.703,-0.022,4.39,62.439,-22.5
-0.142,0.61,-0.096,9.695,68.78,-24.939
-0.279,0.526,-0.127,12.927,68.232,-22.622
-0.412,0.532,-0.145,13.537,61.341,-21.037
-0.481,0.575,-0.14,16.402,50.549,-19.146
-0.501,0.596,-0.12,17.927,42.012,-16.341
-0.492,0.662,-0.094,19.146,35.854,-16.402
-0.471,0.731,-0.028,23.232,25.976,-19.268
-0.47,0.754,0.034,27.988,13.537,-21.463
-0.471,0.774,0.06,31.585,0.061,-26.22
-0.443,0.814,0.093,34.146,-12.683,-33.78
-0.417,0.825,0.095,35.854,-23.354,-40.305
-0.422,0.798,0.082,38.415,-37.988,-46.098
-0.44,0.766,0.042,37.134,-57.683,-51.585
-0.468,0.766,-0.011,33.354,-71.646,-54.085
-0.503,0.735,-0.018,33.171,-70.549,-55.793
