acc_x_axis_g,acc_y_axis_g,acc_z_axis_g,gyr_x_axis_deg/s,gyr_y_axis_deg/s,gyr_z_axis_deg/s
-0.285,0.654,0.093,-28.537,102.805,-9.329
-0.303,0.688,0.084,-27.5,98.293,-12.195
-0.355,0.706,0.06,-28.963,87.988,-16.951
-0.422,0.731,0.022,-31.89,70.183,-21.951
-0.498,0.751,0.031,-35.183,52.683,-24.207
-0.569,0.773,0.032,-37.378,39.085,-25.244
-0.599,0.803,0.051,-33.476,31.585,-21.89
-0.617,0.792,0.104,-25.61,31.829,-15.976
-0.654,0.777,0.178,-14.695,31.159,-11.037
-0.694,0.767,0.277,-2.744,19.939,-6.89
-0.758,0.766,0.393,7.622,-8.598,-4.146
-0.831,0.775,0.451,17.317,-53.049,-2.927
-0.883,0.773,0.474,18.72,-85.61,2.134
-0.825,0.825,0.453,17.561,-87.378,7.378
-0.636,0.875,0.352,22.805,-71.098,11.768
-0.511,0.865,0.206,26.89,-58.293,13.171
-0.516,0.909,0.076,23.354,-50.183,15.854
-0.525,0.99,-0.015,13.902,-42.012,19.634
-0.498,1.054,-0.052,5.244,-35.244,21.28
-0.464,1.059,0.001,0.915,-36.524,20.793
-0.477,1.037,0.086,-3.476,-45.793,19.268
-0.472,1.043,0.158,-7.561,-57.744,15.122
-0.401,1.062,0.236,-8.841,-62.134,13.659
-0.286,1.063,0.313,-9.634,-54.756,12.317
-0.152,1.081,0.375,-8.476,-45.427,8.049
-0.081,1.09,0.428,-7.012,-40.488,2.744
-0.074,1.088,0.46,-5.61,-37.439,-0.427
-0.102,1.063,0.443,-4.085,-34.634,-3.476
-0.138,1.028,0.402,-1.402,-31.402,-6.463
-0.136,0.988,0.386,0.976,-23.354,-5.976
-0.143,0.953,0.34,1.463,-10.488,-4.878
-0.186,0.92,0.257,0.732,5.061,-2.195
-0.193,0.901,0.211,-1.829,21.341,-1.159
-0.182,0.89,0.13,-2.561,32.744,-0.488
-0.196,0.845,0.098,-4.451,41.768,-0.671
-0.191,0.813,0.057,-5.915,45.061,-4.817
-0.188,0.784,0.027,-8.049,44.39,-6.89
-0.187,0.75,0.042,-12.195,44.39,-8.354
-0.183,0.736,0.075,-11.951,46.89,-9.756
-0.205,0.68,0.083,-9.756,53.293,-10.305
-0.247,0.646,0.05,-8.232,57.012,-11.768
-0.298,0.641,0.012,-6.829,54.878,-13.659
-0.334,0.634,-0.008,-5.732,52.378,-14.878
-0.372,0.628,-0.029,-4.573,48.72,-16.951
-0.393,0.622,-0.021,-3.963,42.134,-19.573
-0.434,0.632,0.005,-5.183,31.341,-22.439
-0.508,0.658,0.037,-4.024,22.622,-20.671
-0.533,0.688,0.045,-3.78,25.915,-15.61
-0.586,0.757,0.063,1.22,23.78,-12.439
-0.684,0.791,0.172,6.951,19.207,-5.61
-0.764,0.816,0.268,12.622,11.037,0.549
-0.777,0.854,0.343,19.878,-0.488,7.439
-0.777,0.885,0.347,22.439,-14.085,15.122
-0.837,0.937,0.349,19.573,-38.598,20.244
-0.904,0.999,0.263,12.317,-68.537,22.378
-0.916,1.068,0.107,4.39,-88.659,27.012
-0.751,1.123,0.075,-1.037,-88.902,30.976
-0.597,1.103,0.105,-1.098,-80.305,31.402
-0.479,1.048,0.128,0.244,-70.61,30.61
-0.354,1.027,0.133,1.89,-62.561,29.451
-0.285,1.016,0.199,1.402,-56.768,23.963
-0.248,1.018,0.241,0.183,-48.72,17.5
-0.13,1.047,0.271,-1.463,-33.232,15.122
-0.034,1.068,0.298,-2.195,-17.866,10.244
-0.045,1.076,0.351,-1.28,-9.573,4.512
-0.052,1.069,0.382,0.366,-3.232,1.768
-0.048,1.05,0.38,3.78,5.366,1.402
-0.103,1.023,0.377,5.976,15.732,1.037
-0.167,1.008,0.365,5.488,28.11,1.402
-0.198,0.991,0.336,4.878,42.378,2.012
-0.201,0.95,0.27,5.061,55.671,2.561
-0.22,0.911,0.188,2.073,66.463,2.988
-0.24,0.907,0.124,0.244,72.439,3.659
-0.229,0.875,0.105,-6.098,76.28,1.768
-0.227,0.864,0.052,-7.988,66.341,-4.024
-0.24,0.804,0.02,-11.159,54.085,-6.402
-0.206,0.793,-0.004,-14.817,48.354,-7.317
-0.184,0.788,-0.012,-17.134,45.854,-9.939
-0.193,0.74,-0.012,-17.378,41.707,-13.963
-0.213,0.688,-0.03,-20.427,37.927,-17.317
-0.265,0.692,-0.064,-25.305,32.5,-21.098
-0.308,0.698,-0.066,-25.549,27.256,-24.329
-0.325,0.666,-0.056,-21.463,25.122,-25.61
-0.371,0.65,0.01,-16.89,26.22,-22.622
-0.454,0.646,0.142,-9.329,30.854,-18.659
-0.516,0.614,0.238,1.098,31.585,-16.463
-0.606,0.596,0.258,7.683,19.085,-12.805
-0.745,0.654,0.218,8.78,-3.293,-7.805
-0.827,0.756,0.153,7.805,-28.902,-6.159
-0.812,0.819,0.137,8.354,-54.268,-5.671
-0.779,0.831,0.143,8.049,-75.915,-5.427
-0.714,0.86,0.169,7.561,-87.378,-4.512
-0.625,0.892,0.213,9.024,-87.134,-3.171
-0.56,0.91,0.26,12.012,-80.732,-2.012
-0.517,0.931,0.273,14.39,-71.524,1.524
-0.479,0.955,0.255,14.085,-61.037,6.463
-0.446,0.999,0.193,11.768,-53.963,10.0
-0.455,1.049,0.146,8.171,-55.305,12.866
-0.483,1.096,0.127,3.841,-61.28,15.122
-0.476,1.128,0.149,0.183,-64.939,16.098
-0.435,1.134,0.212,-1.341,-63.476,16.646
-0.362,1.126,0.276,-3.11,-53.659,18.72
-0.279,1.12,0.311,-3.171,-40.854,18.232
-0.223,1.103,0.357,-3.963,-32.927,14.329
-0.167,1.092,0.398,-4.634,-30.427,9.268
-0.135,1.066,0.411,-3.963,-28.476,4.207
-0.111,1.026,0.428,-1.402,-22.012,-0.061
-0.085,0.986,0.441,3.11,-9.146,-2.5
-0.06,0.942,0.46,6.524,10.488,-4.268
-0.081,0.904,0.41,9.695,29.329,-6.585
-0.131,0.863,0.324,9.634,45.122,-7.195
-0.187,0.858,0.222,5.549,58.293,-6.22
-0.224,0.866,0.121,1.098,65.122,-7.561
-0.236,0.856,0.05,-2.5,63.78,-8.963
-0.241,0.826,0.0,-8.537,56.768,-11.28
-0.252,0.805,-0.046,-10.183,45.122,-13.841
-0.249,0.75,-0.022,-11.098,35.854,-15.305
-0.262,0.71,0.015,-10.427,26.037,-18.598
-0.271,0.665,0.061,-8.78,18.72,-21.585
-0.277,0.639,0.07,-10.366,18.415,-21.646
-0.307,0.66,0.045,-13.902,26.22,-21.159
-0.308,0.701,0.002,-14.39,37.622,-22.012
-0.3,0.709,0.019,-11.22,44.939,-21.89
-0.381,0.685,0.08,-6.159,46.402,-19.573
-0.493,0.667,0.167,-0.732,42.744,-16.341
-0.568,0.665,0.245,3.72,31.768,-13.171
-0.639,0.68,0.283,7.439,11.707,-9.878
-0.718,0.701,0.267,9.451,-11.89,-5.976
-0.759,0.748,0.226,9.573,-32.195,-1.768
-0.757,0.813,0.189,9.329,-48.476,1.098
-0.739,0.864,0.181,9.39,-58.232,4.573
-0.687,0.902,0.191,9.634,-58.293,8.232
-0.602,0.926,0.205,11.646,-51.463,11.098
-0.534,0.933,0.248,14.634,-42.439,13.963
-0.496,0.945,0.275,15.488,-34.451,16.768
-0.493,0.972,0.247,14.085,-29.451,18.841
-0.488,1.01,0.224,11.585,-26.585,19.878
-0.458,1.042,0.202,8.841,-27.5,19.756
-0.435,1.067,0.2,6.159,-31.402,20.061
-0.41,1.074,0.248,4.329,-34.329,19.207
-0.372,1.078,0.294,3.232,-33.293,18.598
-0.321,1.092,0.334,1.341,-27.561,17.988
-0.27,1.114,0.353,1.707,-20.183,15.793
-0.243,1.109,0.363,3.415,-11.829,14.024
-0.212,1.088,0.351,4.207,-3.415,11.524
-0.19,1.066,0.327,5.732,3.78,8.354
-0.173,1.02,0.346,9.329,10.305,6.28
-0.157,0.959,0.335,11.524,19.512,5.976
-0.162,0.922,0.304,10.427,30.0,4.573
-0.182,0.905,0.254,8.78,39.451,2.683
-0.194,0.875,0.202,7.012,48.354,1.707
-0.207,0.846,0.134,4.634,54.573,0.183
-0.213,0.826,0.07,3.049,55.366,-2.5
-0.229,0.806,0.057,-0.549,53.72,-4.573
-0.242,0.79,0.053,-3.659,50.488,-8.476
-0.242,0.759,0.061,-2.683,48.293,-10.244
-0.225,0.715,0.079,-2.744,50.976,-10.061
-0.216,0.715,0.055,-3.11,55.549,-11.098
-0.212,0.719,0.025,-4.085,57.134,-13.72
-0.252,0.713,0.006,-7.317,53.293,-16.037
-0.345,0.729,-0.029,-12.5,45.305,-17.866
-0.434,0.76,-0.031,-16.341,35.427,-17.805
-0.488,0.763,0.026,-16.768,26.89,-16.829
-0.505,0.747,0.078,-12.744,18.537,-15.0
-0.547,0.719,0.137,-7.622,8.78,-11.951
-0.597,0.714,0.198,-3.354,-1.524,-8.78
-0.633,0.723,0.235,1.585,-13.598,-6.89
-0.645,0.716,0.226,6.341,-27.927,-6.341
-0.657,0.729,0.202,7.378,-43.11,-5.854
-0.68,0.779,0.167,6.037,-55.549,-5.122
-0.674,0.834,0.16,4.756,-57.805,-2.561
-0.612,0.874,0.154,6.037,-48.11,0.671
-0.513,0.897,0.159,10.0,-33.049,3.841
-0.471,0.913,0.176,12.866,-21.89,7.378
-0.473,0.953,0.202,11.829,-15.427,10.61
-0.492,1.001,0.228,11.89,-14.268,11.707
-0.521,1.003,0.219,12.866,-20.793,12.5
-0.509,1.02,0.209,11.037,-32.927,13.659
-0.471,1.078,0.214,7.744,-43.049,16.159
-0.432,1.113,0.228,5.671,-45.488,17.439
-0.379,1.11,0.258,5.366,-43.963,15.915
-0.325,1.097,0.302,4.512,-40.732,16.037
-0.29,1.099,0.325,2.439,-33.902,15.427
-0.246,1.106,0.335,1.646,-26.463,11.707
-0.226,1.084,0.338,1.402,-21.037,7.256
-0.192,1.047,0.331,1.098,-15.61,2.866
-0.175,1.009,0.325,3.78,-9.085,0.976
-0.174,0.96,0.313,4.39,4.451,1.28
-0.18,0.941,0.245,3.72,19.634,-0.305
-0.189,0.929,0.199,2.317,30.61,-1.829
-0.199,0.899,0.177,0.183,36.829,-2.561
-0.236,0.869,0.139,-1.829,37.866,-3.72
-0.265,0.848,0.094,-4.451,36.524,-4.878
-0.267,0.841,0.071,-7.134,35.244,-5.854
-0.243,0.816,0.066,-8.598,33.232,-8.72
-0.236,0.785,0.07,-7.439,31.463,-10.915
-0.243,0.732,0.072,-5.61,31.098,-12.866
-0.241,0.707,0.082,-5.061,33.293,-15.0
-0.209,0.702,0.071,-5.976,38.902,-17.439
-0.214,0.702,0.042,-8.841,44.451,-19.39
-0.273,0.72,-0.023,-12.683,47.378,-21.159
-0.358,0.742,-0.042,-15.671,47.012,-21.463
-0.437,0.741,-0.004,-16.159,45.549,-21.159
-0.469,0.719,0.082,-12.561,43.841,-18.72
-0.519,0.68,0.151,-8.293,40.244,-14.878
-0.58,0.669,0.202,-3.293,29.512,-12.195
-0.637,0.678,0.216,2.012,11.89,-9.146
-0.705,0.708,0.188,4.939,-8.232,-5.915
-0.727,0.768,0.153,5.854,-27.195,-2.805
-0.715,0.83,0.124,5.732,-41.341,-0.488
-0.675,0.874,0.131,7.256,-47.866,2.805
-0.605,0.886,0.158,8.72,-44.634,5.915
-0.537,0.915,0.169,9.939,-36.524,7.5
-0.49,0.952,0.197,11.402,-28.537,7.256
-0.459,0.977,0.236,12.866,-21.707,6.524
-0.438,0.985,0.262,13.963,-17.317,4.817
-0.435,0.987,0.263,13.171,-17.561,2.866
-0.446,1.005,0.225,9.939,-21.89,1.585
-0.465,1.039,0.205,7.134,-27.683,2.378
-0.467,1.055,0.221,5.549,-31.28,3.841
-0.439,1.069,0.226,5.305,-29.39,6.646
-0.393,1.067,0.241,6.951,-22.195,8.902
-0.34,1.059,0.25,9.146,-13.354,11.524
-0.342,1.051,0.25,9.573,-6.159,13.963
-0.368,1.062,0.239,7.195,-2.439,15.061
-0.39,1.075,0.252,3.293,-1.768,15.305
-0.392,1.066,0.268,2.073,-1.037,14.756
-0.372,1.026,0.267,2.866,4.939,15.549
-0.329,0.99,0.25,3.963,18.11,17.378
-0.282,0.966,0.236,6.768,34.024,16.829
-0.27,0.931,0.213,10.427,49.756,17.073
-0.292,0.896,0.199,13.841,64.512,18.659
-0.334,0.88,0.172,16.524,76.402,20.0
-0.372,0.862,0.131,19.085,81.585,18.476
-0.403,0.836,0.114,21.829,78.78,16.951
-0.411,0.808,0.107,24.39,70.183,14.634
-0.391,0.777,0.103,27.012,59.512,12.073
-0.367,0.739,0.118,25.61,49.268,8.049
-0.336,0.735,0.136,28.11,36.098,3.171
-0.334,0.661,0.189,28.78,25.488,2.195
-0.361,0.645,0.238,28.171,17.561,2.805
-0.382,0.69,0.265,29.634,11.341,2.744
-0.406,0.718,0.275,32.805,4.024,2.744
-0.44,0.748,0.276,37.5,-6.951,4.756
-0.499,0.775,0.301,44.024,-20.793,9.634
-0.552,0.802,0.309,52.073,-33.963,15.549
-0.563,0.811,0.265,61.463,-45.305,21.22
-0.56,0.798,0.229,68.659,-56.402,24.756
-0.529,0.797,0.209,72.866,-73.11,23.232
-0.519,0.778,0.196,76.585,-90.122,24.817
-0.454,0.748,0.186,76.22,-94.939,23.902
-0.376,0.766,0.149,76.951,-94.39,20.183
-0.364,0.752,0.109,75.854,-92.5,15.366
-0.347,0.771,0.078,74.085,-93.293,10.305
-0.352,0.784,0.042,71.768,-98.476,5.366
-0.388,0.789,0.008,69.085,-107.866,-1.524
-0.402,0.782,-0.006,68.11,-121.463,-9.695
-0.401,0.756,0.002,67.744,-136.159,-17.012
-0.391,0.745,0.023,67.561,-151.098,-24.756
