acc_x_axis_g,acc_y_axis_g,acc_z_axis_g,gyr_x_axis_deg/s,gyr_y_axis_deg/s,gyr_z_axis_deg/s
-0.254,1.259,0.53,-7.317,39.207,-20.061
-0.118,1.267,0.459,-8.171,24.39,-20.793
0.07,1.232,0.452,-7.622,10.122,-19.146
0.223,1.18,0.465,-4.756,-2.805,-13.963
0.304,1.095,0.47,-0.183,-15.0,-6.341
0.445,0.999,0.475,4.512,-27.134,1.524
0.566,0.931,0.483,8.902,-39.817,12.561
0.559,0.854,0.469,11.037,-51.89,23.537
0.471,0.75,0.415,10.305,-63.11,33.598
0.413,0.695,0.376,9.512,-74.207,40.305
0.338,0.684,0.331,10.793,-80.915,45.305
0.253,0.678,0.277,11.646,-78.354,49.268
0.114,0.648,0.198,10.244,-72.195,48.537
-0.024,0.604,0.098,7.012,-63.72,43.293
-0.089,0.606,0.046,4.512,-53.232,36.829
-0.17,0.612,0.014,1.463,-36.402,29.512
-0.294,0.577,-0.009,-0.915,-14.512,17.561
-0.506,0.555,0.005,-0.305,9.878,6.098
-0.644,0.58,0.051,1.524,34.634,-3.11
-0.716,0.613,0.108,1.646,63.537,-12.012
-0.74,0.633,0.217,2.073,88.659,-20.976
-0.739,0.671,0.351,4.268,107.256,-29.756
-0.758,0.737,0.46,5.793,120.427,-35.427
-0.737,0.816,0.567,4.39,129.268,-39.878
-0.645,0.901,0.653,2.561,131.22,-43.659
-0.531,0.975,0.683,0.305,127.5,-43.537
-0.415,1.069,0.665,-3.171,125.488,-40.427
-0.31,1.208,0.638,-6.159,119.268,-35.61
-0.245,1.341,0.587,-8.049,107.927,-28.659
-0.208,1.465,0.51,-8.354,94.756,-21.524
-0.105,1.548,0.434,-5.732,73.963,-14.634
0.044,1.536,0.418,-2.012,46.951,-8.171
0.199,1.444,0.427,4.024,15.793,-3.598
0.314,1.321,0.407,9.085,-18.171,0.671
0.416,1.202,0.378,12.683,-50.183,6.28
0.499,1.092,0.391,18.171,-73.72,16.037
0.542,0.967,0.433,22.378,-84.207,27.134
0.498,0.813,0.453,22.866,-85.183,38.293
0.381,0.692,0.426,19.817,-82.134,47.134
0.277,0.654,0.375,13.841,-78.963,52.744
0.152,0.61,0.317,6.159,-73.476,57.012
0.021,0.56,0.203,-0.61,-66.159,57.195
-0.072,0.541,0.065,-5.549,-60.427,51.159
-0.135,0.52,-0.009,-8.902,-57.073,42.317
-0.21,0.468,-0.008,-12.073,-50.854,33.11
-0.293,0.418,-0.038,-13.049,-39.268,22.195
-0.378,0.402,-0.068,-11.707,-20.305,11.037
-0.425,0.449,-0.073,-9.634,7.805,2.378
-0.465,0.504,-0.02,-7.744,40.366,-5.61
-0.497,0.568,0.089,-5.793,71.707,-14.817
-0.547,0.632,0.19,-3.415,98.293,-24.146
-0.586,0.73,0.292,-0.732,118.171,-31.28
-0.665,0.832,0.424,0.671,130.976,-36.89
-0.724,0.922,0.596,-3.415,136.037,-40.976
-0.693,0.994,0.704,-7.134,131.037,-42.927
-0.632,1.068,0.723,-9.085,120.61,-44.634
-0.591,1.154,0.683,-11.037,106.951,-45.671
-0.529,1.257,0.623,-12.622,93.963,-45.488
-0.473,1.322,0.539,-11.829,81.463,-44.207
-0.437,1.365,0.478,-7.805,70.061,-40.915
-0.354,1.397,0.447,-3.72,58.72,-35.671
-0.208,1.375,0.415,2.744,41.524,-29.146
-0.033,1.309,0.39,10.427,22.195,-20.854
0.098,1.229,0.374,16.89,4.878,-12.134
0.221,1.129,0.365,21.341,-13.293,-2.561
0.383,1.023,0.363,24.695,-35.366,8.049
0.488,0.95,0.379,25.732,-59.634,18.659
0.517,0.893,0.379,24.817,-80.61,30.488
0.493,0.812,0.341,22.378,-94.329,43.78
0.427,0.723,0.268,17.256,-99.695,55.549
0.354,0.683,0.199,11.646,-98.659,62.134
0.273,0.652,0.13,7.195,-95.122,66.037
0.198,0.597,0.069,2.5,-91.646,65.793
0.084,0.565,0.015,-0.244,-86.951,60.732
-0.023,0.559,-0.018,-0.915,-76.098,54.451
-0.13,0.533,-0.039,-2.439,-56.951,46.28
-0.271,0.5,-0.04,-4.817,-34.634,35.244
-0.413,0.483,-0.003,-5.976,-10.488,22.195
-0.544,0.49,0.107,-4.878,15.122,10.183
-0.683,0.517,0.219,-2.927,40.854,-1.829
-0.74,0.56,0.294,-0.854,66.402,-13.354
-0.771,0.624,0.367,1.098,87.256,-22.866
-0.789,0.715,0.434,2.5,101.951,-31.28
-0.738,0.804,0.493,2.073,112.317,-38.476
-0.707,0.903,0.54,0.305,120.122,-44.085
-0.671,1.003,0.579,-1.524,122.317,-46.707
-0.603,1.084,0.583,-3.902,117.195,-48.78
-0.534,1.179,0.547,-5.061,105.793,-50.0
-0.497,1.308,0.509,-3.963,90.0,-49.146
-0.438,1.442,0.49,-2.561,72.317,-45.244
-0.318,1.554,0.459,1.585,49.024,-40.793
-0.184,1.6,0.416,6.402,24.634,-34.207
-0.056,1.563,0.381,10.854,4.207,-26.646
0.113,1.444,0.35,15.488,-17.073,-18.415
0.255,1.319,0.331,19.207,-37.683,-10.305
0.349,1.208,0.309,21.524,-55.427,-2.012
0.417,1.087,0.282,24.329,-69.146,7.805
0.459,0.948,0.262,26.829,-77.622,20.305
0.457,0.836,0.261,24.39,-79.146,36.159
0.405,0.74,0.26,19.939,-77.317,49.268
0.339,0.651,0.235,13.963,-76.28,61.037
0.266,0.571,0.22,5.61,-74.756,69.268
0.154,0.504,0.185,-0.244,-74.146,70.183
0.046,0.45,0.136,-3.963,-75.061,65.793
-0.059,0.443,0.088,-10.854,-73.841,58.902
-0.174,0.46,0.033,-17.805,-67.134,47.988
-0.27,0.456,0.008,-22.073,-52.439,36.341
-0.292,0.438,0.003,-25.366,-30.793,24.451
-0.282,0.468,0.005,-25.427,-7.134,12.866
-0.279,0.509,0.033,-22.5,17.622,3.902
-0.323,0.518,0.08,-16.89,40.488,-4.878
-0.432,0.569,0.179,-10.793,61.098,-11.524
-0.572,0.673,0.325,-4.573,77.622,-17.317
-0.682,0.768,0.486,-0.488,88.476,-24.329
-0.717,0.864,0.609,-1.585,91.768,-32.378
-0.699,0.984,0.672,-3.11,91.463,-40.122
-0.695,1.117,0.677,-4.756,91.463,-46.28
-0.698,1.252,0.621,-6.646,89.695,-50.61
-0.706,1.364,0.541,-6.89,85.793,-53.232
-0.639,1.443,0.478,-4.939,80.488,-54.268
-0.547,1.502,0.428,0.061,69.634,-52.866
-0.463,1.507,0.412,6.463,55.366,-49.817
-0.31,1.468,0.395,12.5,40.183,-44.512
-0.115,1.413,0.361,17.927,25.61,-36.402
0.051,1.326,0.341,22.927,11.098,-26.646
0.177,1.214,0.331,27.012,-4.512,-14.512
0.292,1.088,0.33,28.476,-22.805,-1.341
0.422,0.96,0.348,27.744,-43.171,13.049
0.49,0.855,0.372,24.451,-62.012,28.232
0.495,0.776,0.369,17.5,-77.805,42.256
0.458,0.694,0.304,9.756,-89.756,54.939
0.354,0.626,0.208,2.805,-95.427,65.122
0.242,0.599,0.124,-4.024,-95.427,70.305
0.17,0.581,0.079,-9.878,-93.354,71.707
0.089,0.538,0.025,-14.207,-89.024,69.207
-0.031,0.497,-0.039,-15.854,-81.22,60.122
-0.125,0.483,-0.075,-14.756,-70.854,49.207
-0.239,0.48,-0.042,-13.902,-54.085,39.634
-0.341,0.442,0.02,-13.78,-28.841,28.171
-0.488,0.433,0.121,-13.476,2.073,16.28
-0.663,0.488,0.265,-10.671,33.598,5.305
-0.758,0.561,0.37,-7.927,63.659,-5.366
-0.775,0.651,0.415,-7.439,88.293,-16.341
-0.757,0.764,0.421,-8.049,104.756,-27.134
-0.711,0.889,0.437,-8.232,112.439,-36.28
-0.663,0.993,0.491,-9.939,111.707,-43.598
-0.62,1.081,0.528,-11.22,107.622,-49.756
-0.62,1.16,0.516,-8.841,101.829,-54.207
-0.601,1.257,0.475,-3.598,93.963,-54.451
-0.528,1.381,0.442,3.171,80.61,-51.951
-0.404,1.462,0.417,9.756,62.805,-47.683
-0.279,1.496,0.406,16.28,42.012,-41.768
-0.117,1.48,0.372,22.927,20.061,-33.11
0.032,1.446,0.346,27.256,-1.037,-23.659
0.153,1.386,0.34,28.415,-18.537,-13.171
0.285,1.272,0.327,28.354,-34.817,-3.049
0.428,1.145,0.3,28.232,-53.963,8.78
0.518,1.041,0.288,28.78,-71.89,23.537
0.542,0.941,0.279,26.098,-81.829,38.232
0.523,0.823,0.25,21.28,-85.976,52.988
0.485,0.709,0.236,14.573,-84.939,66.22
0.397,0.62,0.232,8.11,-84.695,76.89
0.254,0.541,0.197,1.402,-84.817,82.744
0.08,0.466,0.131,-6.951,-82.073,80.732
-0.078,0.438,0.063,-13.11,-76.89,71.768
-0.16,0.461,0.014,-16.524,-68.841,61.951
-0.268,0.444,-0.003,-20.488,-54.634,51.402
-0.344,0.387,-0.004,-23.598,-34.024,37.5
-0.434,0.414,0.058,-24.634,-7.805,24.39
-0.598,0.45,0.149,-21.951,21.646,12.378
-0.685,0.485,0.263,-17.073,52.378,1.037
-0.751,0.558,0.348,-12.683,80.915,-11.159
-0.79,0.655,0.405,-8.841,100.732,-22.439
-0.741,0.789,0.476,-6.341,110.915,-32.378
-0.681,0.931,0.519,-7.561,114.817,-41.829
-0.635,1.05,0.519,-8.537,113.78,-50.549
-0.599,1.17,0.493,-6.402,108.293,-54.512
-0.557,1.286,0.469,-4.268,99.024,-57.805
-0.478,1.407,0.439,-2.012,83.232,-60.671
-0.387,1.524,0.412,0.671,60.183,-61.098
-0.279,1.6,0.378,4.207,35.671,-59.085
-0.144,1.621,0.332,9.573,14.146,-53.11
0.008,1.563,0.3,16.037,-3.415,-44.939
0.135,1.437,0.283,22.195,-17.561,-36.463
0.243,1.29,0.28,26.707,-30.671,-25.061
0.366,1.152,0.279,30.244,-44.573,-13.78
0.449,1.021,0.311,32.195,-57.866,0.915
0.473,0.898,0.332,32.5,-66.768,17.5
0.469,0.783,0.338,29.085,-68.963,35.488
0.434,0.687,0.342,22.012,-68.598,53.598
0.349,0.596,0.306,12.927,-68.232,67.134
0.216,0.504,0.225,2.561,-67.195,74.39
0.088,0.458,0.105,-6.768,-65.854,76.646
-0.021,0.473,0.011,-13.049,-63.537,71.768
-0.12,0.481,-0.018,-17.195,-59.573,63.659
-0.186,0.455,-0.033,-21.341,-49.695,54.268
-0.233,0.39,-0.031,-23.72,-30.183,41.829
-0.322,0.41,0.005,-23.72,-6.341,30.549
-0.448,0.46,0.069,-21.22,20.0,20.366
-0.601,0.499,0.134,-16.098,49.756,8.415
-0.714,0.585,0.215,-10.366,77.805,-2.622
-0.784,0.732,0.307,-5.61,97.927,-13.476
-0.84,0.885,0.401,-3.72,109.451,-26.524
-0.832,1.019,0.488,-7.317,111.707,-39.939
-0.767,1.154,0.563,-9.756,108.902,-51.22
-0.719,1.263,0.568,-8.72,102.378,-59.207
-0.692,1.356,0.527,-8.537,92.866,-65.244
-0.622,1.426,0.482,-7.317,79.329,-67.866
-0.47,1.452,0.429,-2.988,64.634,-67.317
-0.302,1.434,0.409,3.659,50.244,-62.317
-0.164,1.372,0.396,10.305,35.427,-52.683
-0.029,1.299,0.374,17.073,20.549,-39.695
0.139,1.219,0.357,21.341,6.098,-22.378
0.25,1.139,0.357,24.329,-9.329,-6.098
0.36,1.056,0.354,25.183,-26.402,8.902
0.453,0.958,0.347,23.598,-50.183,22.378
0.477,0.891,0.342,19.207,-75.061,34.695
0.453,0.836,0.327,13.476,-93.049,45.488
0.403,0.751,0.263,7.439,-101.524,56.463
0.357,0.667,0.174,1.89,-102.073,65.671
0.289,0.63,0.083,-2.988,-101.098,67.988
0.196,0.616,0.019,-5.671,-98.537,67.073
0.067,0.567,-0.042,-7.134,-89.268,62.927
-0.067,0.523,-0.074,-8.354,-74.939,55.061
-0.176,0.514,-0.03,-9.085,-56.28,47.805
-0.284,0.485,0.025,-10.427,-33.963,38.537
-0.408,0.472,0.066,-12.012,-12.073,25.793
-0.617,0.485,0.159,-11.037,8.11,12.012
-0.77,0.528,0.24,-8.841,30.61,-0.183
-0.781,0.595,0.304,-7.012,54.756,-12.439
-0.781,0.686,0.364,-6.585,74.695,-25.427
-0.788,0.746,0.418,-6.524,88.232,-37.134
-0.726,0.848,0.462,-5.793,96.829,-45.366
-0.688,0.978,0.503,-7.256,102.439,-51.829
-0.669,1.053,0.515,-7.866,103.78,-55.915
-0.616,1.124,0.494,-6.28,98.659,-58.841
-0.519,1.245,0.453,-4.512,84.695,-60.183
-0.423,1.413,0.416,-0.854,63.78,-59.329
-0.323,1.565,0.378,3.902,40.915,-56.037
-0.179,1.639,0.339,10.0,17.683,-51.098
-0.043,1.609,0.322,15.061,-1.707,-43.293
0.118,1.519,0.33,20.61,-20.061,-34.024
0.252,1.366,0.33,22.927,-39.329,-25.427
0.39,1.226,0.34,24.024,-58.841,-16.28
0.504,1.111,0.367,26.646,-75.488,-3.78
0.556,0.985,0.384,30.366,-85.305,13.902
0.51,0.848,0.361,30.427,-86.524,33.598
0.446,0.732,0.313,24.512,-84.512,50.183
0.39,0.647,0.265,15.061,-86.037,63.598
0.275,0.598,0.2,5.0,-87.683,74.024
0.124,0.535,0.115,-5.122,-87.866,77.988
0.015,0.479,0.029,-12.012,-89.634,76.524
-0.106,0.45,-0.036,-16.341,-87.683,69.939
-0.222,0.461,-0.036,-19.939,-75.793,58.659
-0.367,0.449,-0.017,-23.354,-58.598,44.634
-0.431,0.395,0.026,-25.122,-38.232,31.829
-0.486,0.419,0.069,-22.988,-11.28,19.268
-0.589,0.472,0.098,-20.0,19.085,9.329
-0.655,0.538,0.19,-15.122,46.341,-3.049
-0.681,0.627,0.296,-9.207,67.256,-14.207
-0.668,0.723,0.412,-6.098,83.354,-23.659
-0.644,0.831,0.531,-4.268,91.585,-34.695
-0.616,0.915,0.605,-7.988,88.659,-44.573
-0.565,1.009,0.617,-12.5,80.915,-52.744
-0.49,1.111,0.585,-11.585,71.463,-57.134
-0.432,1.215,0.543,-10.427,63.598,-58.963
-0.394,1.306,0.488,-7.195,55.732,-58.293
-0.323,1.379,0.453,-2.561,44.939,-54.451
-0.249,1.431,0.421,2.683,30.183,-47.622
-0.15,1.471,0.369,10.915,13.841,-41.524
-0.038,1.506,0.333,16.951,-3.293,-35.427
0.087,1.477,0.313,22.683,-23.415,-28.78
0.187,1.365,0.301,28.293,-42.622,-20.976
0.283,1.258,0.278,32.683,-57.073,-10.915
0.347,1.176,0.256,35.366,-65.549,0.061
0.372,1.075,0.268,34.878,-68.293,12.073
0.39,0.947,0.29,32.073,-68.049,24.39
0.385,0.805,0.286,28.659,-67.744,36.402
0.324,0.697,0.267,24.817,-66.89,48.476
0.225,0.634,0.272,17.378,-63.72,57.317
0.114,0.577,0.29,7.134,-59.024,61.341
0.012,0.514,0.273,-1.037,-53.841,61.463
-0.105,0.471,0.25,-7.012,-47.622,56.89
-0.22,0.452,0.244,-15.549,-41.22,50.488
-0.35,0.433,0.245,-23.72,-32.744,41.037
-0.411,0.416,0.28,-28.293,-20.61,28.537
