acc_x_axis_g,acc_y_axis_g,acc_z_axis_g,gyr_x_axis_deg/s,gyr_y_axis_deg/s,gyr_z_axis_deg/s
-0.509,1.066,0.502,13.78,50.671,1.22
-0.553,1.125,0.521,15.61,46.768,-8.476
-0.543,1.16,0.544,15.915,41.159,-16.89
-0.496,1.172,0.557,14.085,36.159,-22.439
-0.454,1.175,0.556,10.671,34.939,-26.098
-0.408,1.175,0.554,6.951,36.768,-27.012
-0.343,1.169,0.544,3.598,37.378,-26.098
-0.256,1.153,0.506,0.366,33.659,-23.476
-0.153,1.123,0.482,-3.415,27.256,-19.207
-0.039,1.086,0.477,-5.732,18.049,-12.866
0.118,1.029,0.479,-7.988,7.683,-3.841
0.306,0.98,0.49,-9.634,-2.988,7.012
0.456,0.948,0.482,-9.695,-13.902,17.805
0.542,0.895,0.476,-8.659,-26.098,28.354
0.545,0.809,0.449,-7.683,-39.451,38.11
0.479,0.719,0.43,-7.683,-53.354,45.854
0.423,0.687,0.413,-7.988,-66.951,51.037
0.349,0.673,0.388,-8.11,-77.378,53.415
0.294,0.641,0.366,-8.78,-82.683,50.488
0.195,0.632,0.328,-8.659,-83.537,44.573
0.065,0.632,0.259,-8.476,-78.11,40.427
-0.01,0.643,0.206,-9.695,-65.061,34.756
-0.101,0.639,0.167,-10.61,-47.378,25.366
-0.181,0.62,0.116,-9.085,-28.902,14.146
-0.221,0.63,0.09,-6.524,-10.305,3.902
-0.307,0.627,0.099,-3.171,6.951,-4.817
-0.418,0.607,0.102,0.854,28.354,-12.134
-0.514,0.619,0.139,4.695,51.22,-15.61
-0.6,0.637,0.229,7.866,69.634,-18.598
-0.66,0.644,0.335,9.512,82.195,-20.915
-0.671,0.662,0.446,8.963,90.61,-23.232
-0.677,0.699,0.536,6.402,95.366,-26.159
-0.641,0.768,0.576,3.598,96.28,-25.854
-0.549,0.877,0.594,1.524,99.39,-24.39
-0.44,0.989,0.572,1.707,101.585,-22.195
-0.397,1.109,0.552,3.598,100.122,-18.963
-0.342,1.273,0.544,4.024,94.817,-15.793
-0.268,1.433,0.507,4.878,83.354,-13.11
-0.159,1.548,0.472,7.988,66.341,-10.549
-0.039,1.611,0.449,11.341,46.585,-9.878
0.086,1.574,0.416,14.085,25.915,-8.902
0.26,1.478,0.389,17.378,3.232,-5.915
0.44,1.349,0.398,20.122,-19.817,-0.305
0.542,1.2,0.438,22.256,-37.622,9.268
0.563,1.035,0.485,25.122,-48.476,20.671
0.591,0.867,0.545,25.793,-57.256,32.5
0.606,0.721,0.626,24.39,-63.78,44.085
0.527,0.625,0.663,19.329,-64.085,53.598
0.366,0.602,0.568,9.634,-61.098,59.329
0.167,0.604,0.42,-0.488,-61.037,61.159
0.034,0.574,0.262,-9.39,-64.146,58.72
-0.029,0.546,0.125,-17.195,-67.805,51.768
0.039,0.577,0.038,-22.683,-71.585,40.122
0.072,0.593,0.004,-24.695,-72.805,26.159
-0.096,0.501,-0.04,-22.134,-66.037,14.268
-0.247,0.482,-0.08,-17.927,-44.207,7.012
-0.331,0.514,-0.111,-13.293,-10.122,1.159
-0.399,0.541,-0.11,-9.817,26.524,-4.878
-0.521,0.578,-0.093,-6.22,58.72,-13.476
-0.673,0.631,-0.016,-0.915,77.5,-23.171
-0.764,0.693,0.151,6.402,83.293,-32.683
-0.799,0.766,0.322,10.061,85.915,-40.549
-0.782,0.834,0.501,7.683,91.463,-47.317
-0.751,0.896,0.657,6.585,92.134,-48.415
-0.719,0.944,0.768,2.866,91.524,-47.988
-0.606,1.004,0.829,-1.402,93.78,-47.256
-0.437,1.096,0.836,-4.756,97.5,-45.0
-0.29,1.215,0.779,-7.683,97.561,-40.976
-0.23,1.336,0.677,-9.634,91.951,-36.098
-0.234,1.446,0.59,-10.427,77.805,-28.049
-0.157,1.506,0.512,-8.841,57.988,-19.634
0.027,1.48,0.412,-5.793,35.976,-8.841
0.154,1.441,0.351,-0.61,10.854,1.463
0.263,1.399,0.34,7.5,-17.012,10.0
0.417,1.265,0.338,17.5,-46.341,17.439
0.534,1.117,0.338,27.134,-72.012,25.0
0.556,1.004,0.323,32.927,-89.146,33.049
0.525,0.888,0.301,34.634,-100.854,42.744
0.514,0.757,0.283,30.549,-108.232,50.915
0.476,0.639,0.256,21.524,-108.049,54.451
0.37,0.559,0.263,13.902,-102.073,57.317
0.216,0.507,0.275,6.22,-91.524,57.988
0.063,0.447,0.239,-5.671,-78.902,53.11
-0.052,0.429,0.177,-15.305,-64.878,46.037
-0.141,0.441,0.119,-22.317,-48.476,37.073
-0.233,0.412,0.083,-29.024,-32.561,24.146
-0.265,0.419,0.082,-33.11,-20.427,10.122
-0.251,0.433,0.073,-32.378,-5.671,-1.159
-0.257,0.48,0.053,-28.049,17.866,-8.537
-0.337,0.542,0.051,-20.671,47.195,-13.841
-0.44,0.608,0.111,-13.659,75.061,-19.451
-0.538,0.701,0.213,-6.463,94.024,-24.085
-0.605,0.807,0.308,0.0,104.207,-28.841
-0.641,0.898,0.403,3.598,106.951,-35.366
-0.696,1.008,0.516,4.817,99.207,-40.549
-0.738,1.114,0.62,3.72,88.415,-44.268
-0.732,1.213,0.684,5.793,80.427,-47.256
-0.665,1.3,0.696,7.378,72.195,-49.207
-0.556,1.375,0.685,9.146,62.866,-50.976
-0.444,1.414,0.649,10.549,54.024,-51.098
-0.318,1.403,0.631,12.561,46.159,-47.683
-0.195,1.383,0.608,13.537,40.793,-40.976
-0.104,1.345,0.55,14.329,33.476,-31.098
0.044,1.274,0.493,14.268,23.354,-19.146
0.195,1.205,0.469,14.329,8.11,-5.549
0.326,1.137,0.443,14.634,-14.451,6.524
0.412,1.04,0.394,14.451,-40.732,17.927
0.446,0.955,0.352,12.927,-67.561,27.378
0.458,0.884,0.314,10.122,-89.878,35.366
0.429,0.79,0.253,6.829,-100.793,43.293
0.364,0.7,0.186,2.317,-102.805,48.476
0.321,0.645,0.138,-2.256,-102.927,48.415
0.248,0.599,0.099,-5.0,-100.671,46.951
0.165,0.537,0.087,-8.537,-89.878,44.329
0.047,0.466,0.077,-12.866,-72.988,38.354
-0.101,0.41,0.068,-15.061,-55.61,31.159
-0.224,0.374,0.063,-16.28,-36.098,24.268
-0.313,0.371,0.11,-18.537,-14.268,15.183
-0.425,0.383,0.164,-18.72,5.854,5.61
-0.486,0.401,0.187,-16.951,24.939,-2.378
-0.515,0.474,0.212,-14.878,41.951,-9.146
-0.544,0.554,0.231,-13.415,59.085,-15.915
-0.57,0.629,0.263,-11.646,75.183,-22.317
-0.581,0.744,0.325,-9.39,88.72,-28.171
-0.585,0.899,0.386,-6.22,98.659,-31.951
-0.569,1.029,0.478,-1.585,103.72,-35.061
-0.556,1.15,0.567,-1.768,101.402,-38.11
-0.542,1.251,0.606,0.915,92.012,-40.854
-0.501,1.365,0.637,5.366,77.805,-41.707
-0.448,1.47,0.635,9.146,61.159,-43.049
-0.386,1.522,0.606,11.341,42.683,-42.744
-0.281,1.529,0.572,14.085,25.305,-39.756
-0.121,1.489,0.556,17.439,9.39,-32.683
0.045,1.394,0.544,19.146,-3.902,-23.171
0.154,1.286,0.529,21.159,-12.866,-12.073
0.223,1.187,0.507,22.622,-20.183,-2.378
0.258,1.082,0.465,24.024,-30.915,7.988
0.297,0.985,0.436,23.78,-43.598,19.207
0.322,0.894,0.404,20.305,-56.098,28.415
0.283,0.795,0.35,14.268,-68.232,37.134
0.265,0.721,0.304,7.622,-79.817,44.207
0.269,0.663,0.252,1.768,-88.171,48.841
0.216,0.599,0.171,-2.744,-90.427,51.28
0.127,0.539,0.086,-6.098,-86.341,51.951
0.067,0.501,0.045,-8.78,-80.549,48.902
0.031,0.467,0.028,-10.793,-70.366,43.963
-0.033,0.421,0.004,-13.232,-52.805,38.841
-0.115,0.409,0.019,-15.244,-31.22,31.707
-0.177,0.413,0.052,-14.878,-10.183,23.659
-0.264,0.428,0.104,-13.293,10.183,16.89
-0.34,0.464,0.163,-11.951,28.78,9.329
-0.346,0.523,0.201,-10.305,43.049,0.793
-0.437,0.586,0.222,-7.866,52.927,-7.5
-0.556,0.685,0.282,-5.915,61.951,-16.22
-0.615,0.792,0.37,-4.756,70.915,-25.122
-0.634,0.895,0.466,-3.72,77.744,-32.622
-0.658,1.019,0.565,-5.61,84.573,-38.232
-0.677,1.16,0.628,-3.72,88.963,-43.78
-0.667,1.26,0.662,-1.829,87.866,-48.841
-0.652,1.331,0.669,1.89,82.073,-52.744
-0.603,1.404,0.647,6.037,72.622,-55.488
-0.536,1.467,0.61,10.915,62.439,-56.951
-0.433,1.492,0.568,15.732,49.634,-54.878
-0.253,1.48,0.522,19.878,35.915,-49.207
-0.106,1.433,0.481,23.659,24.207,-40.122
0.008,1.371,0.443,26.646,11.951,-28.476
0.144,1.29,0.392,26.098,-2.866,-17.256
0.272,1.191,0.353,23.841,-22.073,-5.976
0.392,1.086,0.332,22.134,-43.72,5.183
0.452,0.955,0.289,19.512,-64.024,16.768
0.456,0.82,0.245,14.451,-79.451,28.78
0.458,0.726,0.218,8.537,-88.841,40.366
0.449,0.651,0.188,3.78,-91.707,50.732
0.398,0.562,0.145,0.549,-88.171,60.183
0.319,0.504,0.103,-3.598,-80.183,64.268
0.2,0.464,0.062,-6.89,-73.11,63.11
0.083,0.435,0.051,-11.037,-64.268,60.549
-0.035,0.412,0.066,-17.256,-50.0,54.024
-0.161,0.379,0.075,-21.829,-35.0,42.256
-0.253,0.354,0.104,-22.866,-21.707,29.207
-0.361,0.381,0.164,-23.902,-4.817,16.585
-0.502,0.436,0.193,-24.634,17.5,4.024
-0.597,0.509,0.216,-22.378,44.024,-6.28
-0.619,0.612,0.235,-17.683,68.72,-15.976
-0.659,0.716,0.275,-12.866,88.171,-25.122
-0.713,0.805,0.321,-8.415,100.671,-33.476
-0.76,0.886,0.357,-6.341,106.159,-41.22
-0.823,0.985,0.394,-1.951,108.171,-48.659
-0.838,1.081,0.458,1.159,105.549,-52.927
-0.775,1.151,0.522,3.415,97.622,-57.012
-0.713,1.192,0.535,5.915,84.695,-59.878
-0.639,1.241,0.524,10.488,70.671,-58.78
-0.557,1.315,0.518,15.122,58.171,-54.878
-0.48,1.366,0.525,19.634,47.805,-48.902
-0.362,1.388,0.494,22.805,37.561,-41.159
-0.183,1.43,0.459,25.793,25.488,-32.317
-0.001,1.481,0.447,25.793,11.707,-22.256
0.124,1.449,0.442,22.927,-4.024,-11.646
0.271,1.321,0.428,19.207,-21.22,-2.439
0.427,1.189,0.428,16.28,-39.939,6.22
0.504,1.079,0.434,14.512,-57.866,15.854
0.513,0.962,0.43,11.098,-72.683,25.549
0.489,0.836,0.417,6.28,-82.805,34.573
0.435,0.743,0.374,3.72,-87.866,44.573
0.35,0.686,0.309,2.317,-88.171,55.732
0.223,0.635,0.222,-2.927,-83.11,65.061
0.113,0.595,0.148,-11.646,-76.707,67.683
0.043,0.545,0.071,-15.854,-74.512,63.476
-0.015,0.495,0.027,-16.768,-70.549,55.793
-0.099,0.475,-0.013,-19.39,-62.073,47.439
-0.207,0.457,-0.022,-23.476,-48.963,38.171
-0.342,0.419,-0.003,-23.78,-31.402,26.524
-0.473,0.359,0.025,-23.902,-7.683,17.988
-0.567,0.365,0.074,-22.561,17.622,9.878
-0.637,0.418,0.124,-18.415,39.817,1.463
-0.691,0.484,0.217,-14.024,57.683,-6.829
-0.701,0.547,0.305,-10.305,72.5,-14.817
-0.647,0.616,0.355,-6.28,82.317,-22.378
-0.6,0.717,0.396,-4.817,87.683,-29.268
-0.602,0.843,0.456,-8.293,91.037,-35.305
-0.573,0.962,0.53,-8.72,91.829,-40.122
-0.508,1.059,0.584,-5.549,89.939,-41.646
-0.466,1.211,0.598,-1.524,87.073,-40.793
-0.458,1.403,0.581,3.78,78.78,-39.146
-0.435,1.558,0.564,9.512,63.537,-36.951
-0.366,1.659,0.547,15.183,44.268,-33.841
-0.232,1.71,0.548,20.915,24.207,-30.488
-0.087,1.684,0.536,25.549,4.695,-27.012
0.037,1.572,0.511,29.695,-14.817,-23.841
0.138,1.43,0.479,31.098,-30.244,-19.024
0.197,1.284,0.431,33.72,-40.0,-11.098
0.254,1.132,0.378,35.854,-46.159,-0.244
0.29,0.997,0.322,34.39,-51.585,11.524
0.303,0.892,0.307,28.902,-57.439,23.78
0.283,0.791,0.271,21.22,-62.012,36.646
0.268,0.672,0.261,11.585,-64.451,48.11
0.232,0.564,0.262,0.793,-65.976,56.951
0.167,0.479,0.235,-7.378,-65.0,61.524
0.071,0.406,0.156,-14.024,-62.927,62.988
-0.01,0.375,0.074,-19.634,-60.61,60.305
-0.112,0.386,0.005,-21.707,-56.037,52.988
-0.188,0.343,-0.016,-22.988,-45.0,45.976
-0.21,0.318,0.035,-24.39,-28.232,39.024
-0.28,0.338,0.054,-26.037,-6.524,31.098
-0.402,0.374,0.086,-25.244,16.341,23.415
-0.507,0.439,0.147,-22.439,38.841,16.829
-0.575,0.526,0.2,-18.659,57.134,9.817
-0.637,0.63,0.247,-13.293,70.183,1.707
-0.707,0.766,0.286,-8.293,77.195,-6.707
-0.761,0.933,0.367,-8.659,83.72,-17.683
-0.779,1.104,0.493,-5.183,87.927,-27.5
-0.764,1.23,0.582,-3.049,89.634,-34.756
-0.741,1.32,0.625,-2.073,89.451,-42.317
-0.669,1.375,0.632,-0.183,80.915,-49.085
-0.534,1.394,0.589,2.317,65.61,-53.171
-0.392,1.375,0.529,6.585,50.305,-53.902
-0.233,1.339,0.492,12.134,37.439,-50.122
-0.05,1.278,0.464,18.232,24.634,-42.073
0.102,1.171,0.456,23.232,11.89,-29.817
0.183,1.075,0.45,24.329,-0.793,-16.159
0.223,0.993,0.433,23.293,-18.171,-3.171
0.265,0.918,0.412,20.671,-40.0,8.11
