acc_x_axis_g,acc_y_axis_g,acc_z_axis_g,gyr_x_axis_deg/s,gyr_y_axis_deg/s,gyr_z_axis_deg/s
-0.095,0.474,0.596,19.695,-82.988,55.427
-0.073,0.49,0.573,18.963,-75.305,49.329
-0.06,0.499,0.553,16.585,-76.646,45.488
-0.053,0.52,0.546,12.439,-87.805,42.683
-0.11,0.543,0.582,9.634,-100.366,40.183
-0.182,0.559,0.633,8.598,-113.11,37.317
-0.149,0.568,0.667,6.402,-129.085,33.049
-0.098,0.575,0.701,3.232,-141.951,29.634
-0.063,0.576,0.747,1.098,-146.707,26.951
0.016,0.575,0.767,-1.402,-145.366,23.415
0.095,0.572,0.779,-4.024,-137.988,19.817
0.113,0.567,0.776,-3.902,-125.793,16.768
0.113,0.558,0.754,-0.793,-114.756,12.744
0.119,0.559,0.729,3.78,-106.829,4.817
0.237,0.568,0.74,7.134,-98.902,-7.134
0.391,0.57,0.74,7.988,-89.024,-13.293
0.391,0.577,0.741,7.073,-82.012,-10.488
0.27,0.597,0.743,6.585,-80.671,-6.524
0.158,0.62,0.748,6.402,-83.11,-7.134
0.091,0.628,0.769,5.61,-88.537,-10.488
0.056,0.629,0.764,3.537,-99.878,-12.5
0.012,0.613,0.755,2.744,-113.78,-12.134
-0.019,0.587,0.743,4.085,-126.768,-11.28
0.023,0.561,0.725,6.463,-135.854,-11.341
0.105,0.549,0.719,8.171,-137.683,-10.061
0.205,0.548,0.714,9.329,-133.659,-6.768
0.274,0.559,0.725,10.366,-124.329,-3.415
0.318,0.572,0.733,11.646,-110.61,-2.5
0.341,0.579,0.746,12.866,-93.476,-2.683
0.351,0.586,0.765,13.659,-75.488,-2.683
0.324,0.601,0.799,14.085,-57.683,-2.195
0.286,0.605,0.826,14.939,-41.585,-1.341
0.262,0.596,0.836,17.317,-27.134,0.671
0.261,0.593,0.838,19.268,-14.634,4.085
0.262,0.607,0.825,19.756,-5.793,6.951
0.272,0.627,0.769,17.988,-2.622,7.805
0.261,0.638,0.713,13.72,-3.476,7.683
0.254,0.624,0.665,10.915,-5.0,7.805
0.276,0.618,0.639,8.659,-7.622,6.89
0.273,0.628,0.637,7.073,-8.902,5.366
0.257,0.634,0.647,6.402,-9.634,4.878
0.267,0.632,0.67,7.012,-10.183,5.0
0.274,0.627,0.697,8.11,-6.89,5.244
0.288,0.628,0.719,8.293,-1.341,5.671
0.285,0.628,0.732,9.573,7.561,5.915
0.316,0.626,0.729,10.366,18.11,5.732
0.359,0.623,0.726,10.549,32.378,5.854
0.381,0.624,0.742,10.671,51.402,6.646
0.432,0.628,0.742,9.756,69.329,6.646
0.423,0.624,0.731,9.207,84.024,6.585
0.345,0.613,0.711,10.122,93.476,8.415
0.278,0.614,0.702,10.61,95.305,10.488
0.164,0.628,0.729,11.037,96.585,10.427
0.104,0.63,0.763,11.402,96.28,10.244
0.154,0.624,0.762,11.646,93.841,9.329
0.162,0.614,0.774,12.744,96.951,10.976
0.189,0.624,0.782,13.78,106.524,11.341
0.25,0.635,0.789,13.963,122.073,9.939
0.294,0.644,0.786,13.415,140.122,9.024
0.327,0.65,0.756,13.293,158.049,7.5
0.314,0.643,0.717,15.854,175.488,7.805
0.244,0.649,0.675,17.805,189.512,9.634
0.193,0.67,0.65,17.378,196.89,9.634
0.137,0.67,0.653,17.317,200.366,8.476
0.077,0.655,0.651,17.561,199.207,7.317
-0.028,0.646,0.638,17.561,195.671,5.854
-0.148,0.644,0.636,18.293,187.744,5.915
-0.215,0.654,0.641,20.366,176.159,7.073
-0.244,0.665,0.632,21.28,162.988,8.78
-0.244,0.684,0.623,19.695,151.098,8.841
-0.26,0.687,0.606,17.561,139.573,8.171
-0.326,0.682,0.588,15.915,125.366,8.354
-0.456,0.688,0.57,14.085,104.329,9.817
-0.553,0.711,0.577,10.61,72.622,9.695
-0.585,0.711,0.586,7.622,37.744,8.354
-0.562,0.69,0.598,5.427,7.256,6.402
-0.516,0.684,0.58,1.768,-21.341,3.537
-0.517,0.688,0.539,-4.695,-54.878,1.22
-0.569,0.699,0.494,-11.524,-101.768,-0.549
-0.63,0.704,0.456,-16.524,-161.829,-3.476
-0.651,0.692,0.452,-19.451,-226.22,-9.451
-0.597,0.667,0.485,-20.061,-282.134,-13.78
-0.403,0.649,0.507,-20.427,-321.402,-16.28
-0.121,0.633,0.553,-20.61,-334.634,-18.049
0.155,0.619,0.611,-19.939,-322.927,-18.659
0.37,0.615,0.671,-18.354,-293.963,-20.183
0.485,0.614,0.75,-15.061,-253.049,-21.951
0.59,0.615,0.818,-11.463,-205.183,-23.232
0.65,0.629,0.879,-10.793,-151.829,-23.659
0.588,0.642,0.9,-9.939,-101.341,-21.037
0.498,0.648,0.848,-9.207,-66.037,-15.61
0.36,0.655,0.774,-9.268,-48.11,-9.146
0.216,0.66,0.717,-6.89,-41.768,-5.305
0.191,0.663,0.662,-4.39,-45.061,-5.244
0.221,0.674,0.615,-6.707,-55.61,-6.89
0.203,0.673,0.583,-11.22,-73.049,-6.646
0.166,0.668,0.557,-14.207,-95.549,-6.098
0.1,0.662,0.584,-14.085,-115.0,-6.402
0.144,0.648,0.636,-12.805,-128.72,-7.805
0.256,0.638,0.696,-12.439,-139.939,-11.159
0.267,0.639,0.713,-13.11,-154.878,-15.793
0.161,0.641,0.689,-11.768,-178.841,-18.78
0.127,0.631,0.609,-8.659,-210.305,-23.963
0.18,0.618,0.55,-4.024,-234.756,-28.171
0.354,0.606,0.567,-2.988,-246.89,-28.72
0.53,0.613,0.569,-1.707,-248.415,-30.061
0.597,0.635,0.568,1.098,-238.232,-29.939
0.64,0.646,0.567,6.22,-218.049,-25.793
0.732,0.648,0.558,11.707,-189.39,-20.488
0.803,0.668,0.591,12.805,-150.732,-16.341
0.815,0.687,0.616,9.878,-111.707,-12.439
0.746,0.688,0.597,8.963,-83.232,-9.329
0.612,0.669,0.583,10.305,-68.354,-5.183
0.447,0.654,0.622,10.915,-60.854,-3.232
0.364,0.616,0.671,16.951,-54.939,-2.5
0.408,0.598,0.686,22.439,-46.463,-0.549
0.488,0.632,0.694,25.427,-32.073,0.183
0.574,0.668,0.655,24.939,-14.695,0.183
0.578,0.691,0.646,21.585,4.878,-0.244
0.536,0.666,0.668,20.305,22.805,0.488
0.534,0.645,0.631,21.89,37.195,1.951
0.508,0.665,0.583,19.939,49.451,2.988
0.476,0.7,0.517,14.207,53.232,2.744
0.437,0.7,0.446,13.049,49.817,3.232
0.411,0.684,0.415,13.049,47.378,6.098
0.425,0.676,0.471,12.683,50.915,8.537
0.479,0.672,0.553,13.841,59.634,10.244
0.514,0.682,0.606,16.951,73.902,10.793
0.527,0.696,0.645,16.829,93.232,10.671
0.514,0.702,0.674,16.037,115.61,10.305
0.524,0.674,0.672,18.293,138.476,11.037
0.539,0.661,0.669,18.78,160.244,11.524
0.525,0.673,0.643,18.232,175.244,10.061
0.466,0.678,0.588,18.476,179.207,8.476
0.388,0.676,0.551,19.817,173.78,8.293
0.348,0.675,0.54,21.707,169.329,8.841
0.398,0.676,0.56,22.195,172.988,10.122
0.48,0.69,0.566,20.915,181.646,8.415
0.48,0.71,0.574,19.634,192.561,4.817
0.398,0.713,0.606,17.012,202.866,3.598
0.332,0.711,0.626,14.756,207.317,2.927
0.266,0.695,0.646,16.463,209.939,3.78
0.233,0.693,0.677,17.866,213.415,5.549
0.208,0.707,0.724,17.927,220.793,3.537
0.162,0.714,0.725,19.146,230.671,0.305
0.142,0.711,0.686,20.915,233.902,-1.341
0.096,0.711,0.638,21.646,226.951,-3.963
-0.015,0.708,0.624,23.537,213.902,-5.061
-0.077,0.702,0.644,23.902,196.89,-2.805
-0.099,0.717,0.656,20.976,181.89,-3.049
-0.121,0.723,0.678,19.512,172.439,-4.39
-0.101,0.725,0.678,16.402,162.805,-4.817
-0.104,0.733,0.661,12.805,151.89,-6.037
-0.171,0.73,0.616,9.39,136.524,-5.793
-0.25,0.731,0.54,4.939,110.305,-3.537
-0.333,0.743,0.492,-0.305,75.305,-1.098
-0.406,0.752,0.485,-5.915,39.207,0.671
-0.387,0.754,0.478,-11.707,2.805,0.732
-0.313,0.75,0.479,-16.829,-34.085,-1.402
-0.274,0.731,0.504,-20.915,-72.378,-5.488
-0.294,0.725,0.536,-23.598,-116.585,-9.878
-0.35,0.729,0.554,-25.366,-168.171,-10.366
-0.377,0.722,0.534,-26.646,-223.049,-5.061
-0.347,0.719,0.426,-31.159,-274.878,3.232
-0.249,0.712,0.415,-34.024,-309.939,4.329
0.018,0.684,0.498,-34.451,-312.439,-2.073
0.36,0.665,0.585,-36.037,-284.39,-5.732
0.549,0.668,0.63,-37.195,-239.024,-4.512
0.625,0.666,0.702,-35.671,-186.28,-5.183
0.64,0.653,0.775,-32.073,-133.476,-7.744
0.588,0.667,0.811,-28.171,-92.195,-8.963
0.454,0.68,0.798,-23.963,-68.537,-6.585
0.331,0.688,0.756,-19.146,-61.402,-3.902
0.254,0.7,0.72,-15.488,-63.963,-3.902
0.219,0.703,0.682,-12.927,-69.695,-5.305
0.227,0.699,0.655,-13.171,-79.39,-7.256
0.22,0.689,0.635,-13.11,-90.915,-9.024
0.212,0.675,0.604,-11.463,-104.512,-8.963
0.258,0.672,0.563,-12.195,-123.171,-10.244
0.286,0.675,0.541,-13.11,-140.61,-12.866
0.318,0.666,0.536,-13.171,-155.427,-13.963
0.392,0.657,0.542,-12.622,-166.89,-15.244
0.429,0.651,0.569,-11.89,-172.134,-16.585
0.427,0.66,0.594,-12.012,-175.183,-18.049
0.396,0.671,0.591,-10.915,-178.598,-20.122
0.386,0.681,0.563,-9.024,-185.976,-21.707
0.398,0.678,0.504,-4.878,-193.476,-23.049
0.446,0.676,0.469,-1.341,-193.476,-22.134
0.552,0.682,0.497,0.366,-182.012,-19.085
0.655,0.677,0.539,3.11,-159.939,-15.244
0.706,0.679,0.519,6.098,-134.756,-11.768
0.682,0.696,0.489,8.963,-112.317,-8.049
0.635,0.701,0.482,9.268,-94.512,-5.305
0.595,0.685,0.469,11.28,-79.085,-2.622
0.586,0.671,0.459,13.232,-66.22,2.317
0.55,0.677,0.482,14.878,-52.683,5.427
0.526,0.668,0.485,18.354,-39.817,3.232
0.592,0.647,0.464,24.024,-31.037,-0.488
0.613,0.671,0.536,28.72,-18.72,-1.341
0.589,0.691,0.614,31.341,-4.756,-2.5
0.562,0.706,0.638,29.146,6.463,-4.39
0.522,0.712,0.61,24.146,13.841,-4.756
0.502,0.705,0.56,20.976,18.659,-4.024
0.511,0.691,0.53,19.207,27.134,-1.951
0.511,0.692,0.512,18.11,40.244,0.305
0.484,0.694,0.498,17.378,56.524,2.256
0.481,0.699,0.499,17.256,76.28,5.549
0.505,0.693,0.534,19.39,103.354,11.402
0.557,0.703,0.561,19.451,132.195,15.488
0.564,0.723,0.567,19.634,161.28,16.159
0.52,0.71,0.616,19.39,191.646,19.39
0.538,0.705,0.646,19.268,220.183,20.61
0.559,0.724,0.617,21.89,240.854,16.402
0.508,0.717,0.612,23.293,255.976,12.927
0.466,0.708,0.606,22.805,265.061,11.22
0.441,0.712,0.607,21.89,268.232,9.146
0.372,0.698,0.576,23.11,263.354,7.378
0.256,0.702,0.563,22.256,251.341,6.585
0.17,0.711,0.588,21.341,236.707,6.402
0.174,0.71,0.606,20.488,222.256,6.037
0.165,0.72,0.649,17.439,216.341,5.183
0.152,0.725,0.687,14.573,218.537,4.512
0.167,0.733,0.73,14.207,225.854,3.11
0.17,0.744,0.798,13.232,244.268,0.793
0.208,0.75,0.818,11.037,265.244,-2.683
0.227,0.737,0.736,11.22,275.976,-8.598
0.131,0.713,0.592,13.293,270.061,-12.256
0.004,0.7,0.457,17.561,238.598,-9.451
-0.126,0.733,0.368,16.28,188.598,-5.61
-0.269,0.756,0.363,12.073,137.866,-5.732
-0.354,0.761,0.426,7.012,94.329,-9.024
-0.349,0.761,0.51,2.622,59.085,-12.195
-0.261,0.76,0.567,-3.659,34.756,-13.841
-0.178,0.758,0.617,-11.159,23.841,-13.841
-0.136,0.746,0.664,-18.171,20.183,-13.598
-0.151,0.733,0.676,-21.951,12.805,-13.232
-0.197,0.72,0.637,-22.805,-6.829,-11.951
-0.251,0.726,0.55,-25.305,-46.159,-11.22
-0.337,0.737,0.461,-28.049,-104.634,-12.378
-0.428,0.736,0.411,-28.963,-174.268,-11.89
-0.437,0.714,0.379,-29.268,-243.841,-7.683
-0.328,0.689,0.379,-31.22,-301.22,-3.354
-0.125,0.678,0.469,-33.72,-328.232,-3.11
0.163,0.689,0.604,-36.159,-320.671,-4.573
0.374,0.717,0.671,-39.817,-296.402,-7.317
0.434,0.717,0.66,-40.671,-262.744,-8.232
0.537,0.663,0.719,-36.402,-215.732,-6.89
0.643,0.634,0.811,-31.402,-157.195,-5.671
0.641,0.667,0.828,-26.89,-106.829,-5.183
0.531,0.688,0.814,-22.073,-71.585,-3.232
0.437,0.691,0.759,-18.963,-51.646,-1.402
0.371,0.706,0.676,-19.085,-50.732,-4.085
0.276,0.709,0.612,-17.744,-64.634,-10.549
0.172,0.69,0.566,-15.61,-92.927,-14.573
0.07,0.676,0.54,-13.171,-127.927,-14.756
0.086,0.662,0.533,-10.671,-162.439,-15.488
0.208,0.642,0.542,-8.476,-188.354,-18.537
0.344,0.643,0.565,-6.707,-206.037,-23.354
0.417,0.643,0.567,-3.78,-213.659,-26.098
0.487,0.654,0.577,-3.598,-217.256,-26.159
0.557,0.659,0.544,-1.098,-216.585,-26.89
0.609,0.672,0.507,1.463,-208.78,-26.463
0.671,0.699,0.442,1.22,-196.22,-25.61
0.693,0.733,0.4,-0.61,-181.098,-26.524
0.67,0.738,0.379,1.28,-163.476,-27.195
0.671,0.726,0.35,5.061,-143.049,-25.793
0.667,0.731,0.382,8.293,-117.683,-22.805
0.639,0.741,0.455,11.463,-90.366,-19.573
0.563,0.749,0.571,15.732,-64.207,-15.915
0.468,0.727,0.638,24.024,-38.171,-11.402
0.459,0.675,0.647,33.963,-18.963,-6.89
0.462,0.658,0.657,42.744,-5.427,-1.159
0.467,0.665,0.661,44.573,5.61,5.976
0.514,0.659,0.619,37.439,15.0,10.793
0.507,0.7,0.487,26.22,18.415,4.817
0.498,0.697,0.421,19.573,19.634,0.183
0.571,0.701,0.437,16.707,25.793,1.768
0.567,0.71,0.47,15.793,35.183,3.841
0.514,0.711,0.49,18.841,45.854,7.988
0.507,0.694,0.519,25.0,62.195,14.085
0.532,0.706,0.543,27.927,86.341,17.073
0.54,0.725,0.6,28.72,114.756,17.683
0.521,0.733,0.627,28.902,141.707,17.439
0.486,0.746,0.619,26.951,165.366,16.402
0.449,0.757,0.64,21.89,187.012,17.256
0.422,0.762,0.667,20.244,207.073,18.232
0.415,0.752,0.708,20.122,228.841,19.146
0.434,0.758,0.716,18.354,248.476,16.951
0.444,0.743,0.643,20.61,258.902,12.744
0.415,0.719,0.572,21.341,262.134,11.037
0.362,0.712,0.53,20.0,258.293,8.659
0.323,0.699,0.494,20.793,247.622,6.28
0.286,0.699,0.533,20.061,238.841,7.195
0.266,0.713,0.574,17.744,232.622,7.073
0.239,0.724,0.628,16.829,232.5,5.976
0.216,0.734,0.705,14.695,238.171,5.366
0.213,0.753,0.744,11.89,242.683,3.415
0.189,0.754,0.72,10.732,241.402,0.183
0.112,0.735,0.668,11.585,236.28,-4.39
0.076,0.73,0.633,11.037,227.683,-9.756
0.073,0.738,0.569,10.183,218.476,-12.683
0.085,0.745,0.478,9.39,205.61,-14.146
0.032,0.75,0.438,7.012,187.622,-15.427
-0.099,0.75,0.413,5.366,169.085,-15.366
-0.186,0.765,0.385,2.744,143.963,-11.28
-0.235,0.792,0.421,-1.524,115.0,-6.524
-0.271,0.805,0.504,-6.037,90.183,-4.207
-0.262,0.795,0.566,-9.085,69.817,-1.89
-0.248,0.776,0.612,-11.829,53.049,-2.134
-0.263,0.764,0.633,-17.012,34.451,-6.585
-0.29,0.744,0.633,-21.402,7.256,-10.915
-0.302,0.721,0.577,-25.061,-30.488,-12.805
-0.319,0.721,0.495,-28.963,-86.524,-13.293
-0.412,0.725,0.417,-31.402,-156.28,-12.378
-0.522,0.724,0.345,-29.817,-229.878,-8.902
-0.517,0.716,0.31,-26.402,-290.732,-6.037
-0.335,0.708,0.356,-24.268,-327.378,-7.195
-0.016,0.729,0.415,-26.646,-340.305,-10.61
0.27,0.76,0.477,-33.293,-330.732,-10.671
0.366,0.764,0.578,-36.159,-297.134,-8.659
0.474,0.736,0.665,-31.951,-247.683,-10.793
0.632,0.704,0.771,-26.22,-186.89,-14.39
0.724,0.699,0.819,-23.415,-123.537,-12.622
0.651,0.702,0.838,-20.488,-68.354,-7.622
0.484,0.692,0.825,-15.0,-27.378,-3.78
0.367,0.705,0.78,-10.854,-4.756,-4.939
0.287,0.708,0.695,-10.915,-3.78,-7.5
0.192,0.702,0.6,-11.768,-22.622,-9.573
0.106,0.684,0.533,-11.463,-55.671,-9.39
0.049,0.672,0.483,-12.012,-101.037,-8.476
0.039,0.684,0.441,-10.61,-148.841,-10.488
0.106,0.687,0.467,-8.476,-184.878,-12.683
0.252,0.678,0.562,-7.683,-201.159,-14.329
0.426,0.676,0.631,-7.378,-201.098,-17.439
0.498,0.687,0.68,-7.927,-195.915,-20.305
0.479,0.71,0.672,-9.573,-193.476,-21.585
0.455,0.705,0.646,-10.061,-192.378,-21.524
0.475,0.685,0.631,-8.171,-189.695,-20.549
0.502,0.678,0.581,-5.244,-185.488,-19.085
0.573,0.681,0.495,-2.683,-179.695,-17.012
0.627,0.685,0.475,1.402,-162.073,-9.451
0.704,0.687,0.483,7.073,-133.598,-0.549
0.729,0.705,0.498,11.951,-101.524,4.939
0.633,0.735,0.507,14.024,-74.695,6.707
0.514,0.75,0.485,14.329,-62.012,4.451
0.417,0.724,0.471,16.037,-58.659,3.537
0.388,0.686,0.454,19.268,-56.098,5.793
0.424,0.68,0.473,20.61,-50.061,10.305
0.45,0.707,0.53,19.695,-35.305,12.561
0.47,0.724,0.583,18.293,-15.671,10.183
0.509,0.708,0.608,18.659,3.232,8.11
0.53,0.709,0.607,19.085,19.695,8.11
0.514,0.724,0.595,20.732,41.22,8.659
0.574,0.71,0.575,22.683,69.634,9.573
0.666,0.71,0.535,23.354,100.732,11.585
0.642,0.721,0.519,22.256,133.232,14.085
0.578,0.724,0.507,20.061,160.61,14.451
0.523,0.724,0.53,17.744,184.39,14.024
0.478,0.722,0.568,15.61,205.793,14.329
0.473,0.719,0.578,16.159,223.72,14.329
0.458,0.716,0.614,17.256,241.951,14.695
0.438,0.712,0.649,17.073,256.402,12.378
0.394,0.708,0.646,17.5,263.902,9.756
0.349,0.706,0.642,18.293,266.585,8.902
0.346,0.705,0.624,18.598,266.22,7.805
0.358,0.713,0.603,19.024,266.89,6.585
0.328,0.706,0.597,19.207,268.476,5.122
0.279,0.703,0.593,20.732,265.0,3.415
0.211,0.706,0.595,22.317,255.976,1.829
0.11,0.712,0.59,22.622,240.427,0.549
0.036,0.726,0.573,22.988,217.622,-1.341
-0.044,0.74,0.56,21.037,193.537,-2.988
-0.092,0.756,0.577,18.049,171.951,-3.598
-0.083,0.773,0.62,15.244,155.061,-5.0
-0.054,0.777,0.634,11.098,140.732,-7.012
-0.021,0.77,0.599,6.159,124.634,-8.11
-0.035,0.756,0.559,2.561,104.573,-5.488
-0.104,0.748,0.517,1.646,80.854,-1.463
-0.179,0.752,0.458,-0.488,55.244,0.854
-0.258,0.768,0.435,-4.207,27.317,1.646
-0.308,0.785,0.436,-9.573,-4.756,0.305
-0.319,0.797,0.444,-16.707,-44.573,-2.256
-0.323,0.787,0.461,-22.561,-89.085,-4.695
-0.341,0.771,0.485,-27.561,-133.963,-6.524
-0.343,0.754,0.521,-29.878,-174.878,-6.28
-0.292,0.748,0.544,-30.976,-204.695,-3.841
-0.177,0.754,0.538,-33.049,-224.634,-3.232
-0.008,0.745,0.537,-33.354,-227.317,-8.963
0.208,0.721,0.569,-33.476,-207.805,-15.732
0.368,0.707,0.614,-33.841,-172.195,-16.28
0.469,0.699,0.646,-32.988,-131.463,-12.5
0.533,0.692,0.687,-30.427,-90.488,-10.488
0.54,0.692,0.716,-27.378,-53.78,-9.878
0.465,0.688,0.743,-22.195,-25.732,-8.72
0.363,0.682,0.774,-17.683,-12.622,-7.317
0.219,0.678,0.793,-13.11,-13.293,-6.707
0.151,0.671,0.774,-8.963,-25.61,-8.232
0.153,0.678,0.729,-10.183,-49.634,-10.732
0.085,0.689,0.671,-13.476,-83.11,-12.5
0.031,0.68,0.598,-14.329,-122.744,-13.72
0.068,0.675,0.517,-14.756,-161.098,-14.695
0.138,0.663,0.491,-14.268,-190.671,-13.476
0.27,0.644,0.553,-10.366,-197.927,-10.244
0.46,0.638,0.675,-4.024,-174.207,-5.732
0.656,0.657,0.783,0.305,-129.085,-2.195
0.753,0.677,0.829,3.659,-76.951,0.61
0.727,0.675,0.794,7.5,-30.915,4.817
0.621,0.67,0.727,11.89,2.134,9.451
0.496,0.686,0.638,15.671,19.146,12.622
0.388,0.702,0.582,19.817,26.28,13.659
0.349,0.686,0.576,23.598,30.366,13.902
0.344,0.674,0.608,26.89,38.171,13.537
0.311,0.683,0.66,30.915,55.915,13.963
0.34,0.689,0.697,34.939,83.963,16.28
0.426,0.698,0.724,36.402,118.354,18.963
0.496,0.726,0.667,34.085,147.805,16.89
0.456,0.746,0.549,30.0,166.098,12.073
0.35,0.742,0.459,25.915,170.61,8.232
0.307,0.731,0.429,25.0,164.085,4.512
0.3,0.735,0.429,25.0,153.415,4.39
0.245,0.757,0.439,25.305,144.024,6.341
