acc_x_axis_g,acc_y_axis_g,acc_z_axis_g,gyr_x_axis_deg/s,gyr_y_axis_deg/s,gyr_z_axis_deg/s
-0.081,0.421,0.729,-48.659,45.427,37.012
-0.102,0.409,0.766,-46.037,39.39,30.732
-0.132,0.406,0.79,-42.561,31.951,27.195
-0.124,0.406,0.759,-37.378,26.28,25.915
-0.167,0.417,0.715,-28.171,16.341,16.098
-0.22,0.416,0.738,-16.646,4.39,-2.317
-0.163,0.401,0.759,-10.671,-0.305,-11.89
-0.055,0.396,0.786,-6.585,1.89,-10.427
-0.014,0.375,0.818,1.768,8.354,-7.073
-0.045,0.363,0.798,10.976,16.402,-2.5
-0.131,0.399,0.75,18.11,18.598,1.159
-0.229,0.458,0.73,20.061,14.939,3.841
-0.29,0.531,0.709,15.488,8.72,1.89
-0.354,0.618,0.712,7.866,-2.195,-3.537
-0.344,0.659,0.704,-0.915,-9.939,-3.171
-0.336,0.649,0.717,-1.768,-14.939,-1.585
-0.389,0.612,0.697,6.707,-25.793,-3.415
-0.446,0.573,0.667,13.659,-41.707,-3.171
-0.441,0.583,0.637,13.049,-54.451,-0.061
-0.382,0.628,0.646,8.049,-62.805,-0.183
-0.319,0.661,0.662,4.085,-69.695,-1.707
-0.283,0.649,0.662,1.402,-74.634,-2.866
-0.224,0.612,0.676,2.195,-75.183,-3.11
-0.201,0.578,0.696,3.11,-77.134,-3.963
-0.251,0.573,0.723,2.073,-83.72,-4.817
-0.27,0.579,0.727,0.183,-90.061,-3.232
-0.26,0.599,0.717,-3.598,-95.183,-1.098
-0.226,0.608,0.745,-6.037,-98.598,1.646
-0.181,0.598,0.729,-6.585,-103.72,2.927
-0.188,0.58,0.731,-7.195,-112.988,3.049
-0.177,0.562,0.783,-7.927,-128.902,3.476
-0.171,0.562,0.789,-13.659,-150.854,4.573
-0.159,0.576,0.775,-17.134,-170.61,2.378
-0.184,0.599,0.736,-17.317,-192.134,-2.256
-0.227,0.618,0.701,-23.537,-218.171,-6.951
-0.216,0.671,0.611,-33.78,-235.671,-7.744
-0.154,0.723,0.55,-37.439,-233.903,-7.5
-0.008,0.685,0.613,-32.561,-213.476,-8.11
0.144,0.611,0.722,-25.61,-177.988,-9.878
0.281,0.563,0.856,-22.805,-135.305,-10.976
0.411,0.535,0.943,-23.293,-95.793,-10.122
0.402,0.555,0.973,-21.341,-68.049,-8.171
0.323,0.531,0.952,-16.28,-52.134,-6.098
0.261,0.5,0.905,-12.5,-47.927,-3.171
0.18,0.5,0.845,-11.89,-51.463,-0.854
0.139,0.499,0.804,-12.317,-54.756,1.951
0.174,0.487,0.761,-11.098,-48.78,7.622
0.264,0.451,0.793,-8.049,-35.122,10.244
0.287,0.436,0.868,-6.951,-23.354,11.037
0.288,0.447,0.916,-7.927,-15.732,12.378
0.279,0.478,0.922,-9.024,-8.963,15.549
0.287,0.499,0.904,-8.476,1.707,19.39
0.314,0.5,0.902,-5.61,15.305,21.829
0.354,0.496,0.888,-3.11,29.817,23.415
0.345,0.502,0.887,-2.012,43.598,23.72
0.275,0.514,0.907,1.28,58.78,24.329
0.229,0.496,0.903,6.89,76.037,25.61
0.176,0.467,0.931,12.439,92.744,26.524
0.15,0.459,0.918,13.659,110.305,28.902
0.163,0.5,0.892,11.28,130.427,32.5
0.182,0.538,0.871,11.22,152.317,36.159
0.193,0.519,0.866,15.122,175.854,38.354
0.18,0.484,0.835,20.427,192.744,33.902
0.154,0.467,0.854,24.695,196.403,28.902
0.146,0.459,0.837,24.39,199.451,33.841
0.098,0.505,0.773,21.28,209.207,41.646
0.02,0.555,0.76,21.707,220.244,45.366
-0.037,0.556,0.737,23.902,227.744,44.451
-0.095,0.565,0.659,22.317,226.89,36.098
-0.183,0.601,0.629,18.902,212.317,25.915
-0.218,0.604,0.561,15.793,194.085,22.561
-0.207,0.588,0.554,13.841,180.732,20.122
-0.207,0.592,0.655,13.963,169.329,12.256
-0.225,0.618,0.682,14.39,156.159,3.354
-0.248,0.647,0.665,14.573,142.683,-1.951
-0.26,0.649,0.717,15.732,131.707,-4.207
-0.264,0.629,0.739,16.707,124.451,-7.256
-0.313,0.622,0.742,17.256,114.39,-12.012
-0.417,0.621,0.743,17.927,96.646,-15.976
-0.51,0.621,0.75,16.646,73.293,-18.11
-0.541,0.641,0.73,12.622,51.22,-18.841
-0.548,0.666,0.685,8.537,29.878,-20.061
-0.549,0.669,0.634,6.829,7.744,-20.854
-0.541,0.647,0.594,6.524,-16.098,-21.707
-0.533,0.629,0.597,4.878,-48.049,-24.329
-0.54,0.631,0.593,1.646,-90.549,-29.268
-0.594,0.648,0.533,-1.098,-139.329,-34.878
-0.681,0.658,0.424,-3.78,-190.366,-39.39
-0.696,0.661,0.327,-8.659,-236.22,-43.049
-0.596,0.671,0.293,-14.329,-266.829,-45.305
-0.428,0.66,0.333,-15.488,-274.634,-45.061
-0.23,0.615,0.422,-11.037,-261.463,-42.988
-0.036,0.56,0.545,-4.451,-233.72,-37.561
0.128,0.505,0.698,-0.671,-198.842,-30.305
0.26,0.488,0.799,-0.427,-168.963,-25.732
0.281,0.496,0.835,-2.439,-153.902,-24.634
0.184,0.508,0.82,-2.012,-152.866,-20.854
0.081,0.524,0.746,-2.378,-156.585,-14.329
0.022,0.558,0.708,-5.671,-162.5,-9.024
0.018,0.62,0.688,-10.0,-172.866,-2.317
0.015,0.662,0.712,-21.768,-187.622,0.488
-0.01,0.729,0.705,-35.061,-196.89,-4.207
-0.031,0.773,0.671,-32.988,-194.085,-12.561
0.06,0.661,0.747,-19.207,-178.781,-20.61
0.271,0.52,0.835,-12.683,-156.646,-22.744
0.376,0.549,0.88,-19.146,-131.098,-19.268
0.457,0.619,0.921,-18.902,-103.842,-15.0
0.527,0.6,0.875,-9.878,-75.244,-9.268
0.526,0.509,0.863,-1.89,-54.756,-3.902
0.472,0.454,0.895,-0.305,-49.451,0.732
0.357,0.456,0.862,-0.671,-53.232,4.634
0.261,0.446,0.85,1.159,-56.646,7.317
0.211,0.426,0.866,4.146,-55.549,9.146
0.228,0.435,0.875,3.049,-47.561,12.012
0.29,0.485,0.864,0.671,-32.622,16.463
0.361,0.51,0.889,-0.854,-13.476,19.451
0.381,0.512,0.933,-1.037,5.366,20.183
0.379,0.51,0.955,1.098,22.439,20.854
0.353,0.497,0.97,5.488,37.927,22.561
0.308,0.466,0.956,10.549,53.537,24.329
0.266,0.459,0.93,13.78,67.378,26.341
0.255,0.471,0.904,14.085,81.585,30.732
0.26,0.482,0.892,14.268,96.22,33.902
0.249,0.484,0.872,14.512,116.829,37.195
0.267,0.491,0.849,14.817,143.171,40.915
0.28,0.489,0.893,18.11,168.476,43.415
0.258,0.462,0.894,22.561,187.012,41.707
0.204,0.466,0.888,25.488,191.037,36.037
0.17,0.49,0.821,25.915,195.793,36.951
0.206,0.525,0.745,25.305,214.512,41.524
0.247,0.537,0.804,29.756,245.061,49.39
0.275,0.506,0.816,34.085,280.122,56.951
0.199,0.511,0.809,35.976,300.0,54.878
0.009,0.535,0.772,35.732,289.573,41.098
-0.17,0.561,0.67,31.22,253.049,23.11
-0.269,0.625,0.555,21.28,210.122,16.585
-0.269,0.68,0.497,12.256,186.585,16.707
-0.272,0.685,0.567,10.61,175.0,9.939
-0.217,0.666,0.654,9.756,165.854,1.463
-0.17,0.674,0.701,8.902,159.085,-0.915
-0.241,0.66,0.713,11.037,149.512,-0.244
-0.335,0.617,0.715,14.085,136.342,-0.061
-0.398,0.605,0.731,16.768,119.817,-2.134
-0.435,0.624,0.74,16.341,100.488,-7.5
-0.463,0.656,0.734,14.634,79.817,-14.573
-0.48,0.673,0.732,13.171,59.878,-20.244
-0.491,0.658,0.73,10.732,42.683,-22.927
-0.49,0.643,0.687,9.207,24.695,-23.171
-0.476,0.629,0.614,8.841,3.232,-21.159
-0.486,0.615,0.555,6.28,-28.78,-19.329
-0.51,0.614,0.542,3.78,-72.378,-20.183
-0.559,0.625,0.47,2.439,-124.39,-25.366
-0.664,0.641,0.353,-1.768,-187.073,-34.573
-0.739,0.667,0.295,-8.476,-253.72,-42.561
-0.7,0.683,0.243,-16.89,-308.354,-46.463
-0.532,0.677,0.263,-24.695,-332.073,-48.11
-0.333,0.651,0.371,-23.476,-332.012,-48.415
-0.137,0.583,0.492,-13.72,-318.11,-42.805
0.053,0.486,0.606,-5.854,-295.122,-30.915
0.166,0.462,0.644,-7.256,-277.988,-21.951
0.169,0.537,0.686,-13.11,-265.976,-17.134
0.128,0.629,0.656,-19.756,-250.427,-16.463
0.174,0.669,0.753,-21.707,-224.329,-21.28
0.335,0.66,0.839,-17.988,-193.659,-25.854
0.412,0.619,0.9,-13.598,-173.049,-27.622
0.415,0.571,0.91,-16.037,-163.963,-25.976
0.361,0.608,0.81,-21.28,-157.744,-22.256
0.292,0.651,0.766,-21.524,-152.683,-21.524
0.34,0.622,0.7,-21.22,-141.707,-20.793
0.406,0.579,0.727,-19.146,-124.451,-17.134
0.506,0.525,0.771,-12.866,-96.402,-9.878
0.574,0.443,0.849,-2.134,-62.622,-4.024
0.591,0.331,0.986,5.244,-43.537,0.549
0.482,0.315,1.032,4.268,-35.61,7.988
0.323,0.419,0.968,1.463,-21.89,14.756
0.308,0.494,0.907,-0.427,-0.305,18.659
0.379,0.529,0.898,-0.61,22.378,21.951
0.396,0.53,0.881,1.646,46.159,24.329
0.388,0.511,0.853,6.585,72.012,26.402
0.414,0.494,0.85,11.037,100.488,32.195
0.427,0.479,0.881,16.341,129.878,38.354
0.377,0.458,0.923,22.744,156.342,42.012
0.305,0.449,0.917,26.646,180.61,43.963
0.256,0.472,0.928,29.329,196.342,45.671
0.184,0.489,0.926,30.427,206.463,47.439
0.11,0.52,0.864,32.073,210.793,45.427
0.05,0.531,0.853,33.354,201.22,36.524
0.023,0.528,0.822,28.78,182.073,32.073
0.058,0.561,0.766,20.61,176.281,39.329
0.106,0.594,0.733,18.659,193.963,49.024
0.134,0.563,0.784,25.183,225.549,56.28
0.121,0.513,0.805,31.524,253.476,54.573
0.021,0.521,0.781,33.659,261.159,41.707
-0.125,0.554,0.723,31.585,245.61,29.268
-0.198,0.595,0.625,25.061,218.537,27.744
-0.201,0.637,0.574,18.537,194.512,28.293
-0.238,0.667,0.592,13.049,176.951,21.585
-0.272,0.701,0.607,9.268,164.024,11.098
-0.261,0.709,0.686,9.634,153.902,3.659
-0.24,0.669,0.734,12.073,147.195,-0.61
-0.27,0.639,0.726,14.329,140.244,-3.354
-0.339,0.627,0.705,17.012,126.829,-5.732
-0.428,0.62,0.721,18.415,104.451,-10.671
-0.504,0.639,0.726,16.341,76.707,-17.927
-0.539,0.677,0.73,12.561,50.305,-23.049
-0.534,0.693,0.7,8.902,27.5,-24.451
-0.505,0.683,0.661,4.756,4.939,-23.902
-0.469,0.669,0.62,1.585,-22.439,-22.378
-0.468,0.656,0.567,-1.037,-57.866,-22.073
-0.531,0.65,0.491,-3.537,-105.122,-26.646
-0.627,0.656,0.422,-6.22,-162.073,-34.268
-0.708,0.674,0.326,-10.244,-225.488,-41.707
-0.718,0.694,0.234,-19.329,-283.781,-49.695
-0.622,0.71,0.251,-27.622,-322.317,-56.159
-0.433,0.697,0.279,-30.305,-339.329,-59.756
-0.19,0.635,0.377,-27.805,-331.707,-60.244
0.069,0.559,0.483,-17.195,-305.976,-53.354
0.295,0.474,0.602,-9.268,-268.902,-37.256
0.411,0.428,0.748,-8.598,-234.39,-23.354
0.317,0.478,0.834,-16.768,-220.854,-19.207
0.173,0.575,0.846,-23.841,-217.134,-20.61
0.147,0.646,0.744,-27.134,-201.281,-22.683
0.218,0.664,0.778,-26.159,-179.756,-27.744
0.352,0.645,0.843,-26.037,-164.146,-28.841
0.369,0.635,0.779,-29.085,-148.598,-27.012
0.295,0.637,0.813,-26.28,-131.524,-25.549
0.312,0.558,0.893,-21.646,-120.427,-21.524
0.326,0.504,0.858,-20.732,-109.634,-18.537
0.29,0.515,0.86,-17.866,-97.256,-17.5
0.301,0.494,0.873,-15.305,-83.659,-13.354
0.328,0.467,0.878,-12.134,-60.671,-6.22
0.375,0.432,0.913,-3.171,-31.768,1.22
0.444,0.352,1.011,2.317,-13.171,7.744
0.358,0.364,1.007,0.061,-6.098,11.098
0.272,0.45,0.953,-4.024,-0.366,13.293
0.283,0.489,0.918,-8.841,7.805,15.305
0.316,0.488,0.916,-13.415,14.756,19.024
0.347,0.464,0.94,-14.451,20.61,21.524
0.3,0.434,0.924,-9.451,27.256,21.22
0.298,0.396,0.893,-1.463,31.646,23.232
0.25,0.379,0.873,4.451,34.756,25.976
0.066,0.401,0.827,11.463,36.037,25.122
-0.039,0.415,0.848,18.11,37.195,23.72
-0.043,0.421,0.907,21.22,40.488,22.317
0.011,0.449,0.886,20.183,47.622,20.183
0.137,0.461,0.925,17.805,60.488,20.488
0.159,0.463,0.913,18.72,75.732,21.646
0.155,0.437,0.932,23.598,85.854,22.805
0.121,0.403,0.94,26.89,84.878,23.476
0.08,0.426,0.854,30.488,69.695,20.366
0.097,0.451,0.786,34.024,48.415,20.061
0.089,0.456,0.663,30.122,27.5,19.024
0.031,0.533,0.596,23.902,7.012,18.902
0.005,0.586,0.602,23.049,-7.439,21.402
