acc_x_axis_g,acc_y_axis_g,acc_z_axis_g,gyr_x_axis_deg/s,gyr_y_axis_deg/s,gyr_z_axis_deg/s
0.077,0.646,0.589,3.598,51.402,-5.183
-0.033,0.68,0.582,3.963,39.878,-6.341
-0.148,0.695,0.599,4.39,30.549,-9.146
-0.197,0.725,0.605,7.439,20.488,-13.78
-0.211,0.733,0.602,10.671,5.732,-19.39
-0.237,0.732,0.592,9.878,-11.524,-21.098
-0.27,0.733,0.602,6.524,-24.268,-19.695
-0.278,0.729,0.577,4.268,-37.439,-19.207
-0.284,0.733,0.543,3.11,-66.829,-21.768
-0.401,0.759,0.504,11.646,-126.585,-24.268
-0.657,0.762,0.4,27.134,-212.744,-24.817
-0.935,0.71,0.29,42.378,-308.659,-20.244
-1.054,0.694,0.257,53.049,-384.634,-12.378
-0.958,0.695,0.293,60.732,-421.463,-4.024
-0.656,0.678,0.373,69.573,-421.037,0.915
-0.285,0.684,0.449,79.573,-399.39,5.183
-0.022,0.705,0.492,80.488,-370.122,11.707
0.059,0.743,0.473,63.598,-329.573,17.134
0.092,0.815,0.449,41.402,-276.829,14.268
0.347,0.881,0.394,27.927,-206.89,5.061
0.676,0.904,0.464,20.427,-128.659,1.098
0.885,0.858,0.538,15.488,-58.293,6.098
0.954,0.753,0.538,16.037,8.049,5.0
0.997,0.668,0.581,16.707,71.159,-3.415
0.998,0.654,0.578,8.232,121.768,-15.061
0.869,0.745,0.521,-5.488,150.976,-21.829
0.616,0.785,0.495,-20.732,165.61,-22.561
0.311,0.728,0.378,-31.646,182.073,-21.463
0.152,0.727,0.351,-36.159,205.427,-18.963
0.046,0.755,0.451,-37.256,228.11,-16.341
-0.043,0.765,0.519,-30.61,239.329,-15.305
-0.115,0.741,0.568,-21.22,230.61,-15.488
-0.259,0.707,0.657,-22.866,207.256,-14.634
-0.404,0.749,0.739,-31.098,184.695,-12.805
-0.353,0.834,0.745,-35.793,175.915,-10.915
-0.233,0.858,0.729,-38.72,180.549,-7.073
-0.179,0.854,0.662,-38.659,191.463,-0.793
-0.164,0.837,0.603,-30.427,199.634,4.451
-0.194,0.791,0.638,-23.11,195.854,8.963
-0.268,0.742,0.704,-19.695,179.512,12.195
-0.361,0.754,0.726,-16.707,154.207,14.146
-0.387,0.797,0.704,-13.72,124.573,15.671
-0.316,0.813,0.647,-7.683,92.439,15.61
-0.254,0.774,0.589,1.098,55.366,12.866
-0.257,0.732,0.56,6.524,11.159,11.707
-0.346,0.748,0.509,11.768,-37.866,11.098
-0.434,0.747,0.486,16.951,-83.476,8.78
-0.431,0.734,0.5,18.11,-112.744,7.866
-0.342,0.758,0.556,19.756,-119.756,6.707
-0.178,0.751,0.66,20.427,-102.927,4.329
-0.04,0.753,0.721,19.573,-72.561,2.5
0.034,0.773,0.729,19.268,-46.341,0.793
0.019,0.775,0.699,17.073,-34.573,-0.427
-0.05,0.778,0.6,12.683,-32.561,-0.244
-0.105,0.793,0.524,9.695,-36.768,1.402
-0.095,0.774,0.521,7.378,-40.366,1.28
-0.089,0.75,0.54,4.939,-36.707,0.061
-0.027,0.761,0.568,5.488,-30.488,1.402
0.016,0.74,0.632,0.61,-26.89,2.805
-0.02,0.725,0.641,-5.305,-22.683,3.537
0.096,0.729,0.643,-7.683,-13.415,2.439
0.187,0.694,0.679,-16.341,5.915,2.744
0.181,0.736,0.711,-25.915,40.427,3.049
0.176,0.792,0.76,-23.659,81.402,-0.183
0.166,0.789,0.885,-17.866,118.11,-5.854
0.074,0.801,0.917,-17.256,154.939,-13.659
0.025,0.871,0.88,-18.049,193.354,-18.841
0.074,0.908,0.788,-13.902,219.085,-19.695
0.128,0.882,0.643,-5.488,213.11,-23.354
0.079,0.846,0.509,-0.671,166.89,-30.976
-0.094,0.849,0.393,0.549,92.622,-36.707
-0.318,0.835,0.458,3.841,-5.549,-37.561
-0.611,0.74,0.557,16.463,-116.342,-35.061
-1.065,0.655,0.458,26.89,-209.146,-27.073
-1.333,0.676,0.302,29.573,-254.085,-13.354
-1.178,0.782,0.132,40.976,-272.256,-4.756
-0.869,0.853,0.066,58.902,-302.317,-4.573
-0.737,0.875,0.04,62.256,-347.805,7.256
-0.725,0.894,0.076,57.256,-386.829,21.037
-0.586,0.871,0.129,51.28,-397.256,25.976
-0.359,0.813,0.177,38.476,-373.963,28.78
-0.044,0.783,0.26,29.512,-323.537,26.28
0.338,0.747,0.425,27.195,-260.549,20.0
0.588,0.703,0.499,18.841,-204.329,23.11
0.651,0.712,0.384,5.366,-148.537,34.756
0.653,0.682,0.368,-2.561,-85.061,37.317
0.682,0.731,0.418,-4.024,-18.598,29.573
0.696,0.766,0.586,-5.305,42.195,18.841
0.717,0.656,0.679,-8.902,89.573,7.622
0.644,0.607,0.52,-17.744,132.195,-0.671
0.493,0.706,0.469,-22.012,162.683,-1.524
0.314,0.74,0.457,-20.549,171.585,1.463
0.043,0.728,0.471,-24.085,169.39,4.024
-0.208,0.783,0.614,-29.878,170.854,6.951
-0.26,0.853,0.765,-31.159,181.281,7.805
-0.227,0.877,0.85,-23.293,190.915,6.524
-0.19,0.852,0.856,-13.049,186.159,4.146
-0.254,0.824,0.817,-5.671,162.927,4.451
-0.377,0.847,0.783,-3.963,130.122,9.817
-0.45,0.868,0.736,-5.732,97.988,14.939
-0.44,0.823,0.684,-1.28,74.024,15.671
-0.318,0.759,0.703,8.78,53.72,10.488
-0.14,0.755,0.725,6.707,33.11,14.39
-0.104,0.781,0.702,1.585,17.134,22.927
-0.038,0.73,0.687,5.0,10.671,22.073
0.104,0.689,0.664,9.146,6.646,18.171
0.136,0.745,0.608,6.524,-2.622,18.171
0.022,0.811,0.562,1.646,-9.573,17.256
0.004,0.833,0.54,0.366,-12.378,15.061
0.072,0.815,0.562,-2.5,-15.61,13.415
0.062,0.794,0.574,-10.183,-11.463,13.11
0.071,0.788,0.616,-20.244,15.0,12.988
0.217,0.783,0.646,-26.524,60.488,13.598
0.412,0.75,0.716,-31.951,101.463,15.0
0.419,0.714,0.728,-33.293,126.22,15.732
0.316,0.683,0.715,-30.122,130.427,10.915
0.177,0.659,0.726,-27.256,123.171,2.317
0.034,0.689,0.646,-18.598,108.72,-7.134
-0.012,0.665,0.694,-13.354,91.89,-17.5
-0.068,0.669,0.748,-16.768,81.463,-24.634
-0.108,0.763,0.67,-19.329,77.073,-27.5
-0.039,0.82,0.482,-12.561,62.134,-26.402
-0.062,0.817,0.292,-0.854,19.878,-28.293
-0.244,0.827,0.313,7.744,-50.732,-26.646
-0.554,0.808,0.444,14.756,-140.183,-20.549
-0.84,0.748,0.506,28.293,-227.683,-18.415
-0.869,0.711,0.524,43.659,-293.232,-18.598
-0.713,0.719,0.484,46.341,-322.744,-13.963
-0.519,0.758,0.456,43.415,-320.122,-6.829
-0.275,0.836,0.389,46.829,-302.317,-3.476
-0.072,0.858,0.299,44.146,-285.427,-1.829
-0.023,0.838,0.212,32.5,-271.89,3.659
-0.012,0.833,0.196,20.976,-247.5,13.171
0.091,0.771,0.315,14.146,-211.89,21.524
0.25,0.617,0.45,8.293,-168.171,25.549
0.375,0.57,0.456,3.902,-115.671,28.354
0.563,0.646,0.458,0.366,-50.122,24.573
0.743,0.791,0.462,5.244,21.28,13.11
0.94,0.743,0.601,9.634,72.927,0.61
0.813,0.598,0.526,0.305,94.024,-0.244
0.435,0.576,0.317,-14.085,100.488,3.476
0.202,0.647,0.237,-20.183,101.281,4.512
0.097,0.675,0.26,-24.024,104.146,2.927
0.005,0.699,0.38,-29.451,111.281,-2.439
-0.039,0.755,0.544,-34.329,127.866,-7.683
-0.073,0.828,0.708,-33.537,154.329,-10.183
-0.074,0.867,0.868,-25.183,177.866,-10.793
-0.084,0.833,0.997,-16.768,182.744,-7.744
-0.166,0.793,1.029,-10.61,171.403,-4.207
-0.218,0.84,0.888,-2.195,148.781,-5.244
-0.229,0.884,0.759,1.098,115.244,-4.756
-0.209,0.858,0.696,6.89,76.463,-5.549
-0.174,0.764,0.699,13.11,35.671,-2.622
-0.082,0.703,0.72,11.585,2.012,5.488
-0.022,0.663,0.675,9.756,-14.817,9.085
0.067,0.68,0.646,6.159,-17.073,8.78
0.123,0.773,0.615,2.012,-9.39,3.293
0.16,0.821,0.607,-2.317,0.183,-0.671
0.233,0.827,0.587,-9.512,10.122,-2.256
0.249,0.801,0.583,-20.366,28.354,-0.915
0.287,0.824,0.6,-30.366,62.256,1.098
0.412,0.819,0.673,-34.085,102.317,2.927
0.487,0.779,0.75,-32.012,132.866,5.488
0.391,0.691,0.86,-30.854,153.963,2.805
0.217,0.667,0.91,-27.195,168.537,-1.707
0.072,0.698,0.947,-17.683,174.939,-5.976
-0.043,0.693,0.971,-8.598,173.171,-14.207
-0.127,0.729,0.896,-7.012,169.573,-22.378
-0.11,0.798,0.715,-5.793,156.646,-25.183
-0.109,0.819,0.518,-2.805,122.866,-25.488
-0.146,0.838,0.281,-0.244,62.256,-27.256
-0.223,0.896,0.226,2.622,-28.293,-26.159
-0.418,0.879,0.255,5.061,-126.829,-22.256
-0.737,0.809,0.173,12.439,-211.159,-19.024
-0.78,0.797,0.208,26.28,-269.329,-15.671
-0.607,0.75,0.361,46.463,-300.671,-16.89
-0.57,0.66,0.477,60.427,-333.842,-22.866
-0.554,0.691,0.51,51.159,-364.085,-12.988
-0.581,0.774,0.353,40.183,-359.207,0.488
-0.325,0.809,0.322,38.659,-318.354,8.963
0.051,0.717,0.488,34.146,-269.817,10.366
0.163,0.672,0.552,19.817,-225.0,14.451
0.212,0.709,0.55,1.89,-170.427,19.878
0.417,0.731,0.494,-5.488,-95.61,18.232
0.769,0.735,0.463,2.256,-0.244,7.378
1.094,0.654,0.635,1.951,91.524,-3.963
1.06,0.578,0.67,-13.11,149.268,-5.549
0.725,0.602,0.328,-25.244,182.683,-0.793
0.4,0.608,0.13,-25.488,201.829,4.39
0.149,0.593,0.145,-26.28,207.561,8.841
-0.116,0.646,0.302,-29.268,206.403,8.171
-0.323,0.748,0.511,-25.0,196.342,-0.488
-0.435,0.828,0.702,-17.195,165.305,-9.329
-0.5,0.862,0.834,-12.317,114.756,-12.5
-0.558,0.854,0.906,-14.024,68.537,-7.256
-0.578,0.821,0.953,-12.866,42.378,-0.793
-0.383,0.817,0.919,-7.683,38.78,1.463
-0.128,0.836,0.885,-0.488,50.61,1.951
-0.028,0.816,0.857,5.732,64.268,2.134
-0.038,0.798,0.833,9.817,68.354,3.354
-0.105,0.789,0.78,8.72,58.171,5.61
-0.163,0.784,0.688,9.817,36.89,9.329
-0.133,0.753,0.621,8.963,10.549,9.573
-0.097,0.725,0.577,2.5,-8.171,8.232
-0.017,0.756,0.558,-3.537,-13.78,7.073
0.095,0.771,0.557,-6.585,-5.244,4.695
0.136,0.747,0.584,-7.195,10.549,4.329
0.145,0.753,0.656,-10.61,24.939,3.293
0.11,0.754,0.704,-16.341,40.549,4.085
0.142,0.75,0.675,-22.134,64.268,7.805
0.245,0.703,0.679,-22.988,87.378,7.073
0.294,0.687,0.704,-24.024,97.378,6.22
0.209,0.69,0.751,-27.866,101.89,5.793
0.126,0.702,0.767,-25.0,108.659,0.732
0.113,0.716,0.852,-10.488,103.354,-7.317
0.038,0.701,0.888,5.854,77.256,-18.902
-0.153,0.699,0.803,10.549,41.768,-29.512
-0.302,0.773,0.66,7.195,5.427,-31.098
-0.363,0.821,0.537,1.89,-29.329,-27.073
-0.374,0.833,0.416,-1.707,-60.671,-22.683
-0.339,0.845,0.322,4.939,-89.451,-20.427
-0.313,0.852,0.257,11.951,-125.671,-19.573
-0.354,0.83,0.328,18.354,-177.256,-21.159
-0.488,0.813,0.356,25.915,-232.927,-17.5
-0.615,0.751,0.35,38.354,-280.549,-13.78
-0.64,0.658,0.462,47.805,-317.317,-10.061
-0.612,0.622,0.574,39.939,-334.268,5.183
-0.517,0.659,0.626,33.963,-313.171,21.524
-0.253,0.639,0.664,39.756,-268.902,22.5
0.04,0.67,0.627,38.78,-228.903,18.232
0.086,0.76,0.59,16.768,-194.878,17.988
0.073,0.908,0.511,-0.61,-151.585,25.854
0.256,0.912,0.357,0.305,-103.11,24.817
0.479,0.745,0.313,4.268,-56.22,17.561
0.595,0.688,0.435,8.476,-6.768,11.707
0.716,0.631,0.778,11.341,40.671,3.902
0.693,0.548,0.881,4.451,75.854,-3.78
0.54,0.601,0.731,-4.268,107.866,-9.634
0.473,0.642,0.607,-9.878,141.159,-10.671
0.44,0.634,0.535,-15.732,170.488,-8.11
0.345,0.639,0.49,-21.829,188.537,-5.427
0.205,0.67,0.429,-28.049,193.476,-5.244
0.099,0.704,0.384,-33.537,191.829,-8.232
0.089,0.732,0.419,-36.646,191.707,-12.134
0.13,0.716,0.523,-38.415,194.024,-11.341
0.104,0.661,0.617,-43.598,197.195,-6.829
-0.022,0.659,0.625,-49.634,200.854,-3.049
-0.129,0.696,0.639,-54.329,209.024,2.073
-0.178,0.702,0.655,-55.915,222.927,6.89
-0.207,0.683,0.667,-55.732,238.293,8.598
-0.218,0.695,0.63,-51.829,251.159,7.195
-0.182,0.697,0.638,-48.232,261.463,6.159
-0.136,0.701,0.698,-46.341,264.207,7.988
-0.16,0.705,0.714,-40.976,251.707,9.817
-0.259,0.666,0.69,-38.293,235.427,5.061
-0.246,0.669,0.645,-37.073,225.0,0.0
-0.089,0.702,0.607,-34.329,218.537,-1.524
0.043,0.682,0.56,-32.195,216.403,-4.085
0.061,0.666,0.498,-30.488,218.171,-10.061
0.042,0.673,0.489,-28.293,216.463,-14.146
-0.077,0.66,0.477,-26.951,199.085,-12.256
-0.338,0.624,0.45,-28.476,173.659,-10.427
-0.507,0.61,0.475,-30.854,161.098,-13.232
-0.374,0.647,0.552,-28.049,164.451,-18.171
-0.158,0.63,0.619,-20.61,169.39,-16.585
-0.216,0.589,0.588,-15.366,166.768,-13.232
-0.355,0.617,0.552,-13.476,155.061,-16.951
-0.333,0.682,0.557,-9.756,130.427,-20.305
-0.443,0.684,0.495,-6.28,87.012,-19.024
-0.753,0.649,0.424,-6.585,44.878,-17.866
-0.971,0.705,0.411,-6.463,19.878,-20.915
-0.914,0.77,0.5,-0.915,13.72,-24.024
-0.733,0.759,0.617,8.537,16.585,-21.646
-0.648,0.746,0.691,18.232,14.268,-18.963
-0.729,0.745,0.669,26.463,-1.585,-16.585
-0.929,0.735,0.594,28.537,-29.573,-13.11
-1.12,0.769,0.516,24.573,-58.72,-8.049
-1.206,0.821,0.427,18.293,-74.207,-1.829
-1.1,0.854,0.348,12.195,-65.549,4.695
-0.87,0.844,0.337,8.659,-39.756,11.951
-0.652,0.804,0.407,7.561,-15.244,18.72
-0.591,0.733,0.465,4.207,-1.22,24.756
-0.64,0.703,0.458,-1.707,6.707,28.11
-0.659,0.719,0.433,-6.463,14.085,26.707
-0.624,0.708,0.412,-10.793,23.963,22.256
-0.529,0.698,0.395,-14.512,35.183,14.878
-0.42,0.668,0.392,-16.585,43.659,6.159
-0.343,0.603,0.406,-17.561,50.854,3.659
-0.305,0.536,0.46,-18.293,53.841,8.354
-0.314,0.516,0.476,-18.598,48.415,4.939
-0.292,0.524,0.479,-15.0,37.866,-6.402
-0.394,0.454,0.551,-6.037,33.963,-13.293
-0.477,0.333,0.694,6.037,40.854,-12.988
-0.409,0.286,0.828,15.671,46.585,-8.72
-0.401,0.342,0.775,20.549,36.646,-9.817
-0.447,0.456,0.637,22.256,14.634,-13.78
-0.529,0.541,0.555,20.549,-9.39,-13.232
-0.579,0.608,0.487,17.256,-29.268,-10.0
-0.688,0.663,0.387,15.183,-41.524,-8.902
-0.804,0.732,0.332,13.598,-41.402,-9.817
-0.817,0.826,0.439,13.049,-32.744,-8.354
-0.763,0.884,0.572,12.5,-27.195,-3.171
-0.869,0.895,0.579,7.317,-22.317,-0.915
-0.908,0.928,0.461,3.049,-11.585,-1.402
-0.825,0.88,0.393,2.256,-2.866,2.012
-0.801,0.765,0.377,-0.854,-2.866,8.659
-0.831,0.741,0.366,-6.28,-7.683,12.195
-0.805,0.769,0.35,-10.61,-12.622,11.707
-0.713,0.766,0.36,-14.451,-13.598,12.439
-0.614,0.734,0.42,-17.012,-4.512,14.695
-0.503,0.678,0.484,-16.463,12.561,14.634
-0.43,0.609,0.487,-13.963,31.28,10.183
-0.388,0.551,0.484,-10.915,47.744,7.744
-0.375,0.523,0.489,-8.841,49.634,11.89
-0.368,0.547,0.483,-8.78,32.561,9.817
-0.395,0.581,0.48,-6.768,11.768,-5.366
-0.365,0.544,0.593,1.951,1.159,-17.5
-0.248,0.393,0.74,14.451,-0.427,-17.317
-0.233,0.272,0.817,23.232,-4.085,-12.317
-0.304,0.305,0.731,26.341,-11.829,-13.476
-0.375,0.467,0.601,24.878,-24.329,-16.707
-0.452,0.613,0.462,17.988,-37.195,-14.756
-0.553,0.723,0.309,9.451,-41.463,-9.39
-0.685,0.801,0.199,4.878,-34.878,-5.793
-0.78,0.869,0.289,2.988,-23.232,-4.939
-0.762,0.915,0.493,4.268,-14.451,-0.427
-0.839,0.854,0.563,3.415,-14.451,5.732
-0.9,0.812,0.466,-1.037,-17.683,6.951
-0.86,0.843,0.364,-5.0,-19.573,6.341
-0.76,0.828,0.361,-7.256,-21.768,8.78
-0.708,0.75,0.379,-8.598,-24.512,6.89
-0.647,0.693,0.418,-7.927,-29.451,3.171
-0.599,0.631,0.477,-7.988,-33.78,1.585
-0.515,0.58,0.519,-6.524,-29.939,-0.244
-0.428,0.535,0.577,-1.585,-22.134,-0.732
-0.449,0.474,0.584,0.122,-14.024,0.427
-0.465,0.51,0.502,-2.439,-4.878,0.793
-0.427,0.609,0.452,-3.537,4.695,-2.5
-0.348,0.617,0.465,-1.463,14.817,-7.134
-0.262,0.569,0.561,2.378,22.683,-7.744
-0.263,0.5,0.629,6.646,27.5,-6.463
-0.332,0.464,0.621,10.671,27.195,-7.195
-0.425,0.464,0.583,11.098,20.122,-11.829
-0.489,0.533,0.546,7.988,9.146,-16.646
-0.565,0.604,0.488,2.866,4.268,-20.427
-0.576,0.637,0.425,-1.341,14.451,-21.341
-0.508,0.639,0.427,-1.951,33.11,-16.463
-0.532,0.599,0.456,-0.61,52.805,-10.122
