acc_x_axis_g,acc_y_axis_g,acc_z_axis_g,gyr_x_axis_deg/s,gyr_y_axis_deg/s,gyr_z_axis_deg/s
0.396,0.666,0.557,1.037,-87.317,-5.61
0.391,0.656,0.564,3.415,-70.671,-1.22
0.393,0.645,0.625,4.817,-45.244,0.0
0.423,0.639,0.691,5.976,-22.317,-0.488
0.404,0.624,0.738,7.317,-6.22,1.89
0.36,0.621,0.79,8.232,8.232,6.037
0.361,0.626,0.821,8.902,24.329,8.171
0.349,0.625,0.833,10.976,41.89,9.634
0.36,0.633,0.816,12.744,55.793,12.256
0.343,0.643,0.792,14.634,66.463,15.366
0.335,0.648,0.774,17.256,76.768,19.085
0.346,0.666,0.772,17.805,89.268,23.232
0.37,0.687,0.748,16.463,99.634,23.902
0.35,0.698,0.7,16.159,105.488,23.476
0.308,0.708,0.642,14.939,108.11,22.866
0.319,0.701,0.61,15.183,112.195,20.244
0.393,0.684,0.625,15.61,120.0,17.134
0.445,0.672,0.633,16.037,129.146,14.024
0.391,0.666,0.637,17.683,139.024,13.232
0.313,0.684,0.659,18.049,150.244,12.927
0.295,0.677,0.685,19.756,163.293,11.585
0.285,0.673,0.718,21.28,178.415,13.11
0.21,0.699,0.746,21.22,195.671,13.78
0.141,0.709,0.729,19.085,208.171,11.341
0.017,0.684,0.7,19.695,214.268,8.476
-0.103,0.66,0.691,23.598,208.902,11.585
-0.161,0.708,0.664,22.988,194.207,13.232
-0.226,0.704,0.633,23.841,178.171,15.427
-0.219,0.701,0.613,24.817,162.134,18.78
-0.157,0.708,0.572,25.122,148.598,19.878
-0.118,0.724,0.542,24.024,139.329,17.866
-0.125,0.733,0.504,21.341,130.488,14.756
-0.189,0.752,0.472,17.378,113.476,11.341
-0.276,0.782,0.428,10.793,84.146,7.256
-0.385,0.792,0.401,4.817,51.829,2.073
-0.426,0.783,0.411,-0.427,22.866,-0.793
-0.43,0.786,0.417,-7.012,-2.927,1.28
-0.471,0.787,0.419,-12.256,-29.451,3.415
-0.528,0.773,0.4,-15.244,-65.0,0.976
-0.59,0.743,0.408,-15.61,-102.622,-2.866
-0.591,0.753,0.452,-17.866,-142.5,-5.122
-0.565,0.782,0.46,-22.134,-185.122,-3.476
-0.486,0.765,0.479,-23.72,-220.61,-2.256
-0.202,0.699,0.556,-20.183,-230.549,-4.451
0.257,0.661,0.675,-18.841,-204.817,-8.476
0.662,0.633,0.785,-19.39,-151.402,-12.073
0.861,0.61,0.86,-18.537,-87.988,-17.012
0.866,0.598,0.875,-19.024,-31.89,-20.61
0.593,0.587,0.835,-17.805,6.098,-15.976
0.191,0.607,0.761,-13.537,16.037,-6.951
-0.15,0.672,0.69,-9.939,2.378,-1.524
-0.354,0.722,0.701,-6.707,-24.756,-3.232
-0.329,0.716,0.718,-3.293,-59.207,-11.037
-0.227,0.686,0.711,-1.585,-90.671,-16.22
-0.121,0.66,0.714,-0.61,-115.671,-16.707
-0.041,0.659,0.697,0.732,-132.378,-12.744
-0.077,0.698,0.676,0.976,-142.317,-4.634
-0.015,0.737,0.671,0.427,-150.366,-7.317
0.243,0.709,0.693,1.768,-146.402,-17.378
0.408,0.664,0.709,0.732,-129.695,-19.573
0.363,0.663,0.688,-2.073,-113.902,-14.451
0.24,0.686,0.657,-3.902,-107.866,-11.951
0.181,0.701,0.638,-5.305,-110.183,-13.415
0.163,0.693,0.633,-6.22,-116.037,-14.451
0.161,0.676,0.633,-6.037,-125.915,-14.939
0.172,0.67,0.626,-6.402,-138.049,-15.976
0.198,0.678,0.625,-6.707,-149.207,-16.89
0.237,0.673,0.616,-5.915,-159.329,-16.951
0.301,0.664,0.601,-5.732,-168.537,-16.585
0.338,0.67,0.604,-7.134,-173.354,-15.549
0.376,0.681,0.616,-9.329,-173.78,-15.305
0.407,0.692,0.636,-9.817,-166.829,-15.915
0.444,0.689,0.622,-9.939,-162.744,-17.256
0.44,0.688,0.563,-6.89,-164.451,-19.329
0.386,0.687,0.543,-5.122,-166.463,-17.988
0.42,0.697,0.545,-5.793,-167.073,-17.866
0.503,0.693,0.552,-3.72,-161.89,-17.317
0.574,0.675,0.571,1.341,-148.537,-12.927
0.628,0.675,0.568,5.488,-129.634,-8.72
0.64,0.687,0.57,8.415,-110.305,-7.195
0.601,0.696,0.564,11.22,-94.207,-6.341
0.545,0.691,0.575,12.439,-81.768,-3.049
0.507,0.684,0.59,14.329,-70.549,0.305
0.515,0.667,0.559,16.89,-62.439,1.951
0.517,0.68,0.537,17.317,-55.732,1.585
0.489,0.696,0.535,16.28,-46.951,1.707
0.503,0.7,0.533,12.683,-37.805,1.646
0.509,0.708,0.562,9.451,-26.829,1.646
0.499,0.702,0.561,7.805,-15.732,3.963
0.485,0.713,0.565,5.0,-6.037,5.183
0.432,0.726,0.606,4.39,5.915,6.159
0.435,0.704,0.587,5.732,14.329,6.829
0.463,0.701,0.542,7.256,17.622,5.976
0.463,0.713,0.497,7.744,18.171,5.366
0.454,0.707,0.474,7.988,18.171,4.939
0.479,0.694,0.482,8.293,18.78,5.305
0.518,0.692,0.472,8.476,19.634,6.22
0.518,0.702,0.487,7.988,23.232,7.012
0.503,0.692,0.547,8.963,32.866,7.988
0.533,0.677,0.574,10.061,42.622,8.415
0.54,0.688,0.563,12.622,51.707,8.659
0.524,0.683,0.547,13.598,61.22,10.488
0.525,0.688,0.542,11.037,67.134,10.305
0.479,0.694,0.563,10.61,70.976,9.39
0.447,0.686,0.557,13.232,74.146,9.451
0.478,0.688,0.556,13.354,78.232,9.695
0.49,0.708,0.573,11.951,85.427,10.061
0.477,0.701,0.596,13.354,96.28,10.61
0.487,0.691,0.623,14.451,111.402,11.341
0.522,0.696,0.64,14.329,127.927,11.22
0.524,0.702,0.63,13.415,140.488,10.671
0.453,0.705,0.619,13.415,146.89,9.695
0.376,0.709,0.605,13.78,150.061,8.841
0.361,0.712,0.598,11.89,150.488,7.988
0.351,0.712,0.593,11.463,148.902,6.402
0.298,0.7,0.604,14.512,149.756,7.256
0.312,0.698,0.638,15.793,154.634,8.293
0.365,0.711,0.672,14.329,162.5,7.195
0.358,0.716,0.671,13.049,169.512,5.244
0.312,0.71,0.666,13.11,173.049,2.866
0.261,0.708,0.669,13.049,174.695,0.244
0.198,0.707,0.699,14.207,179.329,0.0
0.194,0.708,0.699,14.329,181.098,2.195
0.182,0.723,0.652,12.622,175.488,3.78
0.06,0.732,0.614,13.11,161.037,7.317
-0.068,0.736,0.545,13.354,133.476,10.854
-0.158,0.753,0.505,11.89,98.11,10.732
-0.221,0.77,0.517,10.305,66.463,9.451
-0.154,0.773,0.564,5.183,44.695,6.89
0.025,0.776,0.619,-3.049,37.866,0.183
0.134,0.768,0.674,-10.671,45.61,-5.122
0.134,0.746,0.721,-15.427,57.988,-6.037
0.09,0.739,0.736,-17.866,66.89,-5.305
0.039,0.742,0.707,-19.268,67.988,-4.451
-0.017,0.731,0.619,-17.988,56.341,-0.366
-0.058,0.719,0.499,-17.195,27.317,7.317
-0.125,0.714,0.421,-17.561,-14.024,12.927
-0.198,0.712,0.432,-17.927,-57.927,11.463
-0.154,0.71,0.468,-17.927,-94.268,3.354
-0.031,0.707,0.532,-18.476,-115.305,-4.695
0.13,0.69,0.634,-18.171,-117.073,-10.305
0.319,0.677,0.731,-17.195,-102.988,-16.463
0.413,0.673,0.788,-15.671,-77.622,-20.793
0.397,0.687,0.79,-14.512,-50.915,-20.732
0.321,0.709,0.745,-13.049,-33.902,-17.866
0.235,0.716,0.674,-9.39,-31.037,-14.207
0.155,0.726,0.624,-6.524,-39.451,-8.476
0.114,0.74,0.572,-5.915,-51.707,-4.573
0.173,0.74,0.552,-6.463,-60.915,-6.037
0.252,0.722,0.563,-6.585,-64.146,-7.988
0.303,0.704,0.59,-7.073,-64.634,-8.902
0.291,0.691,0.611,-6.89,-66.159,-9.573
0.27,0.681,0.612,-6.89,-73.476,-8.78
0.198,0.68,0.632,-7.622,-85.61,-8.476
0.137,0.675,0.65,-8.72,-105.793,-10.061
0.101,0.677,0.626,-10.549,-137.195,-13.659
0.022,0.681,0.6,-9.329,-172.317,-16.402
0.044,0.668,0.577,-6.402,-206.341,-18.598
0.178,0.66,0.53,-4.329,-240.0,-22.378
0.282,0.67,0.445,-1.646,-260.671,-23.11
0.449,0.689,0.447,-0.305,-258.78,-17.256
0.709,0.706,0.5,-2.622,-241.768,-16.098
0.834,0.729,0.499,-2.5,-216.951,-20.61
0.831,0.736,0.504,1.829,-190.915,-19.268
0.799,0.728,0.562,6.402,-164.512,-11.89
0.766,0.716,0.6,11.951,-140.061,-4.817
0.658,0.704,0.631,17.683,-117.256,0.793
0.556,0.681,0.683,20.915,-96.28,4.268
0.494,0.672,0.698,24.939,-77.866,3.659
0.479,0.679,0.637,27.683,-66.159,2.378
0.435,0.707,0.572,28.049,-60.61,-0.122
0.377,0.712,0.523,28.72,-58.902,-2.866
0.383,0.711,0.475,29.39,-57.988,-1.829
0.441,0.718,0.432,28.659,-52.378,-0.854
0.479,0.731,0.433,25.366,-38.293,-0.976
0.499,0.737,0.466,21.768,-17.927,-0.854
0.522,0.727,0.472,19.146,4.329,1.829
0.55,0.731,0.453,15.305,22.744,3.78
0.529,0.743,0.456,14.146,37.561,4.634
0.508,0.738,0.428,15.061,49.512,5.732
0.512,0.738,0.393,13.598,59.878,5.976
0.528,0.749,0.401,11.829,71.098,6.341
0.54,0.74,0.427,13.841,87.561,7.317
0.558,0.728,0.459,13.963,110.183,8.293
0.593,0.73,0.503,13.72,133.659,8.415
0.576,0.742,0.547,12.988,157.012,8.841
0.535,0.743,0.57,11.707,176.951,8.049
0.499,0.737,0.599,9.817,192.561,6.768
0.474,0.731,0.631,9.634,204.817,6.402
0.467,0.72,0.64,12.622,214.329,7.012
0.458,0.712,0.613,15.854,222.805,7.256
0.44,0.721,0.592,15.549,230.549,5.976
0.395,0.717,0.585,16.341,238.598,4.146
0.358,0.718,0.582,15.427,243.11,2.195
0.333,0.736,0.595,13.78,246.28,-2.256
0.263,0.737,0.643,11.89,254.146,-6.402
0.239,0.737,0.699,8.72,263.78,-9.878
0.235,0.735,0.703,7.744,272.927,-13.72
0.242,0.729,0.628,7.622,272.805,-13.11
0.193,0.723,0.562,10.732,265.0,-8.171
0.11,0.714,0.522,15.549,253.476,-1.768
0.048,0.725,0.479,16.707,240.549,0.915
-0.032,0.749,0.465,15.976,231.098,-0.122
-0.097,0.772,0.503,14.207,226.22,-1.524
-0.109,0.805,0.521,10.061,218.659,-6.585
-0.12,0.823,0.526,5.0,205.671,-14.39
-0.169,0.811,0.533,1.098,185.061,-16.402
-0.162,0.796,0.476,-1.585,154.451,-11.89
-0.169,0.792,0.414,-5.61,118.902,-4.451
-0.265,0.789,0.418,-7.134,88.537,3.293
-0.344,0.801,0.424,-7.927,61.707,7.317
-0.369,0.811,0.43,-8.72,38.11,6.463
-0.331,0.799,0.476,-8.72,19.329,3.902
-0.25,0.773,0.511,-8.415,7.073,1.28
-0.195,0.753,0.544,-8.78,2.805,-2.073
-0.194,0.745,0.574,-10.427,-2.622,-3.78
-0.268,0.75,0.551,-13.841,-25.0,-2.866
-0.417,0.763,0.489,-18.293,-74.451,-3.902
-0.575,0.769,0.443,-22.134,-147.866,-8.415
-0.665,0.751,0.385,-23.598,-229.756,-11.951
-0.647,0.718,0.368,-21.707,-303.963,-10.488
-0.451,0.68,0.382,-18.11,-357.134,-6.829
-0.081,0.684,0.394,-20.915,-377.378,-3.476
0.259,0.712,0.456,-27.5,-361.402,0.915
0.49,0.721,0.562,-29.573,-317.073,1.585
0.737,0.724,0.671,-28.78,-257.5,-6.22
0.894,0.721,0.771,-27.317,-186.585,-15.244
0.881,0.708,0.845,-26.463,-115.732,-16.159
0.672,0.697,0.87,-25.122,-60.427,-8.171
0.413,0.705,0.784,-22.683,-32.073,2.866
0.27,0.726,0.7,-19.207,-24.695,4.39
0.251,0.72,0.658,-16.768,-25.366,-1.037
0.262,0.719,0.623,-15.488,-30.061,-4.817
0.224,0.727,0.583,-15.732,-43.232,-5.305
0.177,0.714,0.549,-15.915,-65.732,-5.183
0.119,0.702,0.538,-13.659,-91.098,-6.402
0.121,0.688,0.555,-10.183,-111.646,-6.829
0.211,0.685,0.596,-9.512,-128.963,-7.378
0.239,0.702,0.619,-10.305,-146.159,-10.305
0.185,0.7,0.612,-7.378,-161.037,-10.915
0.209,0.703,0.6,-8.902,-182.988,-10.793
0.226,0.715,0.546,-9.024,-206.098,-14.756
0.231,0.717,0.515,-7.134,-227.012,-17.195
0.301,0.716,0.46,-4.085,-241.829,-18.11
0.399,0.713,0.442,-1.646,-242.5,-17.012
0.511,0.722,0.484,-2.866,-233.232,-15.549
0.566,0.733,0.493,-1.89,-217.256,-16.402
0.576,0.735,0.502,-0.854,-195.061,-16.463
0.614,0.738,0.523,-1.951,-172.317,-16.707
0.63,0.73,0.545,-0.671,-148.72,-18.232
0.626,0.709,0.559,4.634,-123.232,-18.476
0.632,0.689,0.548,9.207,-99.39,-14.939
0.616,0.672,0.572,12.683,-74.573,-8.415
0.632,0.658,0.522,16.585,-55.671,-1.341
0.634,0.684,0.442,16.707,-45.183,5.976
0.586,0.707,0.462,14.817,-37.256,11.402
0.556,0.684,0.519,16.341,-28.049,10.427
0.572,0.661,0.546,20.366,-15.732,5.366
0.616,0.684,0.538,23.354,-1.524,3.293
0.614,0.728,0.534,25.122,12.195,2.622
0.572,0.743,0.504,26.646,23.476,0.0
0.552,0.728,0.469,26.402,33.902,-1.463
0.532,0.729,0.484,25.061,44.024,-0.915
0.491,0.729,0.521,22.134,53.78,1.098
0.477,0.735,0.521,19.085,58.171,3.293
0.469,0.735,0.494,19.817,62.378,4.756
0.503,0.727,0.466,19.939,72.866,7.805
0.557,0.727,0.479,18.72,95.0,11.585
0.562,0.736,0.523,15.305,123.598,14.085
0.538,0.75,0.54,12.683,146.646,14.207
0.474,0.759,0.554,10.915,163.415,13.598
0.438,0.752,0.55,10.122,175.854,12.073
0.459,0.74,0.534,11.098,187.927,11.159
0.49,0.736,0.513,11.707,199.207,9.695
0.499,0.736,0.485,13.354,206.402,6.89
0.471,0.735,0.445,13.476,205.793,4.268
0.393,0.732,0.456,14.573,203.293,1.829
0.319,0.727,0.505,13.963,198.72,2.073
0.293,0.744,0.532,13.171,187.195,0.915
0.214,0.761,0.552,12.256,175.427,1.28
0.162,0.758,0.609,13.232,169.939,2.805
0.213,0.749,0.67,12.805,173.232,5.366
0.292,0.755,0.67,11.707,183.232,4.695
0.328,0.753,0.639,10.915,193.537,2.317
0.298,0.754,0.603,7.744,198.598,-0.305
0.237,0.745,0.524,6.159,197.012,-4.268
0.16,0.738,0.456,5.122,188.537,-4.878
0.115,0.75,0.428,3.171,175.488,-6.098
0.064,0.774,0.473,1.707,166.768,-9.512
0.046,0.787,0.576,0.671,167.5,-10.122
0.103,0.793,0.664,-1.341,180.183,-12.5
0.136,0.776,0.733,-2.866,203.598,-17.073
0.112,0.749,0.786,-0.976,228.293,-19.634
0.083,0.738,0.734,2.195,241.524,-19.634
0.032,0.727,0.594,4.512,235.183,-17.988
-0.102,0.715,0.487,6.768,205.732,-11.037
-0.252,0.743,0.418,4.756,157.622,-2.805
-0.398,0.783,0.405,0.671,105.549,0.366
-0.449,0.797,0.446,-4.329,61.829,-1.159
-0.39,0.798,0.51,-10.671,30.793,-3.659
-0.293,0.793,0.567,-15.915,15.671,-4.817
-0.232,0.776,0.6,-19.085,13.78,-4.817
-0.218,0.751,0.596,-20.122,11.098,-3.354
-0.236,0.732,0.547,-20.427,-4.39,-0.793
-0.314,0.73,0.491,-21.524,-38.963,0.915
-0.432,0.743,0.454,-24.512,-93.171,0.366
-0.493,0.754,0.432,-27.5,-158.659,-1.463
-0.462,0.728,0.416,-26.768,-218.659,-2.988
-0.301,0.688,0.45,-24.39,-261.585,-5.305
-0.04,0.683,0.532,-23.841,-278.11,-8.537
0.196,0.714,0.606,-26.524,-264.146,-9.329
0.351,0.741,0.667,-30.488,-233.049,-7.622
0.388,0.735,0.699,-30.244,-196.098,-7.012
0.416,0.721,0.735,-28.476,-159.451,-9.756
0.436,0.708,0.756,-26.098,-123.293,-9.878
0.41,0.694,0.78,-23.72,-91.524,-6.037
0.358,0.688,0.788,-21.28,-64.878,-2.744
0.32,0.7,0.771,-19.756,-43.841,-2.744
0.312,0.703,0.73,-18.659,-32.988,-4.695
0.264,0.697,0.691,-16.159,-30.244,-5.976
0.194,0.691,0.667,-13.659,-34.817,-5.976
0.15,0.698,0.655,-12.256,-47.256,-6.159
0.101,0.695,0.641,-9.939,-64.207,-6.524
0.085,0.678,0.631,-7.5,-86.098,-7.378
0.092,0.663,0.63,-4.634,-109.512,-8.78
0.122,0.662,0.638,-2.927,-135.488,-10.793
0.139,0.68,0.611,-2.195,-164.329,-14.268
0.13,0.687,0.586,-1.402,-191.951,-15.732
0.179,0.685,0.56,-3.78,-225.305,-16.646
0.228,0.694,0.498,-4.756,-258.72,-19.756
0.267,0.712,0.492,-5.61,-285.183,-20.549
0.344,0.724,0.484,-7.012,-302.744,-20.0
0.446,0.724,0.474,-8.476,-308.598,-17.378
0.537,0.725,0.521,-7.866,-297.073,-11.829
0.623,0.721,0.558,-3.963,-266.037,-5.61
0.689,0.723,0.586,-2.683,-224.756,-0.427
0.708,0.718,0.588,-0.183,-179.634,0.244
0.689,0.695,0.604,4.634,-130.61,0.854
0.67,0.686,0.619,6.037,-83.049,2.073
0.589,0.692,0.604,6.28,-49.573,-3.354
0.439,0.684,0.55,11.037,-37.988,-7.744
0.302,0.676,0.514,16.585,-40.122,-3.963
0.296,0.671,0.514,20.305,-41.646,0.976
0.427,0.66,0.536,24.634,-32.439,4.085
0.609,0.673,0.504,27.378,-16.524,4.573
0.729,0.708,0.454,24.634,0.854,1.585
0.744,0.731,0.444,19.634,18.11,0.427
0.684,0.716,0.45,17.744,34.634,4.329
0.623,0.695,0.456,19.695,52.5,9.085
0.587,0.694,0.464,23.963,77.866,14.207
0.638,0.699,0.416,26.341,107.378,17.927
0.675,0.731,0.411,24.756,141.341,17.866
0.657,0.749,0.44,22.256,177.866,17.256
0.632,0.748,0.43,22.561,210.549,16.646
0.589,0.749,0.431,20.976,231.829,14.573
0.468,0.771,0.488,16.341,243.963,11.341
0.312,0.765,0.583,12.683,249.512,10.183
0.229,0.741,0.681,12.683,250.549,10.0
0.239,0.722,0.728,18.72,250.549,10.305
0.302,0.708,0.695,22.744,253.293,11.829
0.329,0.721,0.668,22.622,261.341,10.122
0.33,0.725,0.61,21.159,265.061,5.61
0.254,0.722,0.566,20.793,261.22,1.463
0.181,0.714,0.549,20.976,252.439,-0.366
0.146,0.722,0.581,18.963,243.902,-0.976
0.131,0.73,0.608,15.915,233.598,-3.72
