acc_x_axis_g,acc_y_axis_g,acc_z_axis_g,gyr_x_axis_deg/s,gyr_y_axis_deg/s,gyr_z_axis_deg/s
0.087,0.449,0.654,-52.805,48.963,63.963
0.111,0.451,0.676,-54.634,51.951,57.134
0.089,0.44,0.685,-53.476,52.317,51.159
0.059,0.408,0.717,-50.61,51.22,45.671
-0.007,0.394,0.74,-47.012,48.963,40.427
-0.053,0.396,0.766,-42.256,45.061,35.976
-0.062,0.399,0.761,-38.354,43.537,32.561
-0.074,0.417,0.772,-35.793,42.012,27.561
-0.079,0.441,0.757,-33.963,39.573,22.805
-0.082,0.449,0.748,-32.378,37.073,19.512
-0.085,0.447,0.744,-28.902,33.841,17.256
-0.092,0.439,0.719,-23.78,27.5,14.939
-0.148,0.44,0.706,-16.951,16.524,9.756
-0.181,0.439,0.71,-11.28,3.963,4.817
-0.196,0.453,0.729,-8.354,-10.244,1.463
-0.22,0.479,0.753,-5.366,-27.012,0.671
-0.202,0.486,0.751,-0.549,-41.341,3.354
-0.227,0.497,0.74,3.902,-57.683,4.939
-0.236,0.512,0.752,6.829,-76.707,6.037
-0.233,0.537,0.74,4.817,-95.671,5.915
-0.252,0.583,0.716,-1.28,-112.134,2.744
-0.208,0.612,0.686,-4.695,-119.573,-0.366
-0.172,0.61,0.651,-5.427,-121.707,-4.085
-0.159,0.581,0.696,-3.049,-123.842,-6.646
-0.107,0.534,0.711,-0.183,-124.573,-7.073
-0.076,0.536,0.718,-4.573,-125.061,-8.415
-0.038,0.587,0.714,-9.878,-123.598,-8.598
0.054,0.627,0.676,-13.598,-117.988,-6.707
0.109,0.619,0.683,-15.488,-111.342,-5.732
0.188,0.602,0.691,-15.061,-104.329,-3.841
0.215,0.591,0.758,-19.451,-103.72,-1.768
0.168,0.593,0.815,-24.939,-111.22,-2.134
0.119,0.612,0.758,-26.28,-119.573,-2.378
0.094,0.585,0.747,-24.634,-124.024,-2.317
0.141,0.539,0.791,-24.451,-122.317,-1.646
0.13,0.543,0.847,-26.951,-123.293,-1.951
0.092,0.555,0.884,-27.866,-126.098,-2.866
0.113,0.538,0.846,-29.329,-123.537,-3.598
0.131,0.543,0.876,-34.146,-119.451,-6.89
0.174,0.581,0.897,-31.524,-116.342,-8.293
0.172,0.578,0.87,-27.622,-110.854,-7.439
0.225,0.54,0.863,-24.939,-99.085,-6.646
0.316,0.525,0.863,-19.695,-76.524,-4.634
0.399,0.475,0.912,-10.0,-46.463,-2.012
0.471,0.381,0.988,-3.598,-24.085,1.524
0.427,0.348,0.988,-4.024,-15.427,5.671
0.325,0.372,0.939,-6.951,-14.939,8.476
0.269,0.39,0.881,-9.634,-14.756,9.817
0.28,0.395,0.847,-10.976,-8.415,12.805
0.308,0.404,0.834,-8.659,3.476,16.768
0.341,0.41,0.819,-5.793,20.244,20.244
0.417,0.416,0.788,-3.963,42.683,24.085
0.491,0.451,0.792,-2.5,64.634,25.0
0.445,0.467,0.817,2.622,83.78,22.256
0.353,0.448,0.782,11.28,104.634,20.122
0.275,0.419,0.797,20.793,126.037,22.439
0.255,0.396,0.796,27.256,156.342,31.89
0.272,0.412,0.805,33.171,191.098,37.683
0.276,0.431,0.852,38.11,218.11,36.951
0.25,0.452,0.829,36.768,236.159,36.646
0.189,0.503,0.82,31.829,246.829,42.195
0.133,0.523,0.816,29.939,259.268,50.976
0.086,0.531,0.766,32.134,275.854,50.366
0.039,0.545,0.778,36.951,284.817,40.122
-0.006,0.537,0.713,40.427,278.963,32.195
-0.022,0.545,0.63,38.415,263.415,32.378
-0.056,0.592,0.592,33.232,241.403,32.744
-0.106,0.646,0.574,29.024,213.415,26.159
-0.164,0.687,0.584,22.744,179.085,15.854
-0.268,0.717,0.635,15.732,140.976,6.707
-0.403,0.709,0.693,12.561,103.293,-1.037
-0.514,0.674,0.746,10.0,71.768,-9.329
-0.575,0.671,0.794,8.049,49.329,-17.561
-0.578,0.681,0.839,8.049,37.805,-23.293
-0.552,0.673,0.844,8.171,35.183,-25.976
-0.514,0.658,0.837,8.293,33.537,-29.207
-0.484,0.646,0.823,9.024,25.0,-32.927
-0.465,0.632,0.76,8.537,3.171,-35.61
-0.454,0.625,0.678,7.378,-35.183,-37.439
-0.481,0.621,0.622,4.207,-87.5,-38.049
-0.563,0.616,0.529,-0.183,-146.585,-39.268
-0.64,0.629,0.408,-4.817,-203.598,-41.098
-0.621,0.631,0.37,-9.817,-249.146,-42.317
-0.491,0.614,0.442,-13.598,-278.659,-42.622
-0.299,0.586,0.474,-12.134,-286.829,-42.988
-0.115,0.546,0.496,-5.732,-273.963,-43.476
0.055,0.491,0.606,-1.098,-246.951,-40.183
0.21,0.482,0.727,-2.988,-218.11,-32.805
0.281,0.55,0.788,-10.305,-195.0,-22.439
0.251,0.6,0.852,-15.122,-180.976,-14.329
0.167,0.623,0.816,-18.598,-180.427,-7.866
0.02,0.645,0.756,-26.28,-187.378,-5.427
-0.054,0.702,0.654,-26.768,-187.195,-7.805
0.027,0.666,0.725,-18.171,-178.171,-15.549
0.278,0.566,0.853,-18.232,-168.537,-19.756
0.406,0.599,0.833,-23.232,-154.817,-18.415
0.433,0.624,0.816,-20.671,-133.659,-13.963
0.565,0.53,0.824,-14.146,-106.646,-7.805
0.603,0.493,0.79,-9.207,-80.244,-4.695
0.547,0.492,0.836,-7.378,-69.39,-1.463
0.449,0.493,0.836,-7.988,-74.512,2.561
0.313,0.485,0.767,-7.134,-82.012,5.854
0.265,0.441,0.764,-1.524,-80.488,9.695
0.271,0.387,0.821,1.463,-69.939,12.683
0.303,0.4,0.87,1.463,-47.561,18.171
0.404,0.423,0.915,5.183,-18.415,22.561
0.431,0.421,0.954,9.268,7.012,21.585
0.374,0.435,0.958,8.232,25.061,21.707
0.334,0.49,0.932,7.988,43.171,25.061
0.311,0.504,0.905,13.232,71.159,29.329
0.375,0.456,0.903,20.549,108.049,35.549
0.443,0.43,0.956,26.707,145.732,40.061
0.419,0.443,0.915,31.037,185.366,42.622
0.378,0.464,0.875,34.207,215.122,42.378
0.291,0.461,0.883,37.561,227.5,41.707
0.142,0.469,0.825,37.317,219.451,39.024
0.009,0.5,0.812,32.927,191.159,34.939
-0.071,0.531,0.78,25.427,158.963,34.146
-0.061,0.566,0.741,18.293,141.951,36.402
0.025,0.574,0.787,18.963,147.378,40.488
0.121,0.531,0.813,24.268,172.073,44.39
0.184,0.506,0.828,28.841,200.549,43.598
0.135,0.506,0.835,33.11,215.732,36.951
0.046,0.5,0.77,32.927,211.463,26.524
-0.039,0.54,0.703,27.561,192.561,21.646
-0.081,0.592,0.627,21.341,174.329,23.232
-0.093,0.622,0.582,14.817,161.707,22.378
-0.077,0.643,0.639,8.354,151.524,18.598
-0.08,0.658,0.697,6.402,140.976,12.683
-0.147,0.651,0.696,8.049,131.89,6.341
-0.212,0.639,0.681,10.61,125.122,1.159
-0.246,0.632,0.708,12.988,117.439,-2.988
-0.271,0.634,0.716,13.293,104.207,-8.049
-0.329,0.647,0.722,10.915,81.768,-13.963
-0.421,0.658,0.725,7.683,52.805,-19.512
-0.502,0.664,0.717,4.817,23.415,-23.598
-0.551,0.668,0.716,3.72,-1.402,-26.159
-0.547,0.659,0.706,3.293,-25.732,-29.329
-0.509,0.644,0.708,2.683,-54.39,-32.744
-0.491,0.634,0.668,2.561,-89.573,-36.037
-0.523,0.627,0.583,0.671,-136.037,-40.976
-0.562,0.625,0.522,-5.122,-190.427,-44.634
-0.54,0.637,0.432,-12.927,-240.061,-44.207
-0.456,0.646,0.42,-17.927,-275.732,-43.415
-0.292,0.622,0.454,-15.671,-289.207,-42.378
-0.105,0.581,0.514,-12.561,-286.098,-40.549
0.052,0.554,0.622,-16.951,-274.268,-39.207
0.137,0.588,0.69,-21.402,-262.988,-38.598
0.14,0.615,0.745,-24.695,-249.695,-35.305
0.175,0.593,0.712,-23.049,-225.793,-30.549
0.205,0.567,0.758,-17.561,-198.659,-23.72
0.253,0.543,0.815,-16.341,-174.878,-18.049
0.286,0.579,0.842,-20.183,-156.22,-16.89
0.287,0.644,0.768,-22.927,-136.22,-18.841
0.318,0.661,0.774,-20.183,-120.976,-21.951
0.373,0.648,0.748,-22.683,-111.524,-22.073
0.371,0.644,0.736,-27.5,-98.171,-17.927
0.433,0.612,0.759,-21.829,-73.537,-9.207
0.546,0.494,0.808,-5.122,-42.378,-1.28
0.562,0.346,0.929,7.317,-30.854,0.427
0.448,0.3,1.007,2.256,-54.39,2.195
0.218,0.405,0.954,-2.744,-83.11,6.28
0.103,0.466,0.836,0.854,-87.073,9.268
0.225,0.466,0.797,3.232,-74.329,11.89
0.38,0.5,0.807,0.488,-53.598,16.951
0.466,0.537,0.779,-1.402,-26.951,22.073
0.556,0.519,0.796,-4.634,-1.585,23.415
0.562,0.532,0.804,-8.232,15.427,23.354
0.476,0.538,0.827,-7.927,25.793,25.854
0.345,0.498,0.859,1.341,39.451,28.902
0.282,0.442,0.871,13.659,61.341,32.805
0.295,0.418,0.885,22.378,92.561,38.598
0.323,0.448,0.908,28.476,125.061,44.329
0.315,0.466,0.912,31.585,158.415,48.537
0.281,0.479,0.909,34.024,188.903,47.744
0.215,0.479,0.957,37.256,206.89,41.341
0.155,0.488,0.904,37.256,210.549,35.549
0.135,0.514,0.847,35.732,209.024,35.793
0.168,0.523,0.8,34.756,214.695,44.146
0.268,0.523,0.783,33.049,232.134,55.549
0.26,0.539,0.773,32.988,246.951,53.659
0.113,0.537,0.744,35.366,245.976,39.085
-0.031,0.524,0.693,35.305,232.012,27.439
-0.068,0.53,0.659,31.159,216.463,26.22
-0.063,0.564,0.637,25.366,201.707,25.732
-0.098,0.61,0.633,17.988,181.707,20.122
-0.194,0.666,0.626,12.5,154.024,10.122
-0.296,0.69,0.631,8.72,124.329,-0.305
-0.32,0.688,0.709,4.939,100.366,-10.793
-0.308,0.678,0.783,3.293,84.085,-20.915
-0.307,0.66,0.828,4.207,73.232,-26.463
-0.329,0.633,0.837,6.951,63.415,-26.89
-0.346,0.614,0.824,8.537,50.061,-26.524
-0.354,0.622,0.777,6.585,28.049,-28.537
-0.374,0.642,0.72,1.28,-5.854,-30.976
-0.387,0.657,0.662,-4.634,-49.634,-33.72
-0.429,0.653,0.608,-10.0,-104.207,-37.805
-0.5,0.639,0.542,-16.037,-170.61,-42.744
-0.553,0.635,0.458,-23.11,-242.134,-46.28
-0.563,0.641,0.365,-30.366,-303.598,-48.171
-0.492,0.634,0.353,-33.598,-342.317,-49.573
-0.312,0.597,0.396,-31.951,-354.695,-50.854
-0.065,0.562,0.447,-24.329,-339.268,-48.171
0.198,0.516,0.535,-17.439,-300.732,-42.927
0.406,0.506,0.634,-14.024,-247.805,-36.829
0.505,0.538,0.72,-15.366,-193.11,-33.78
0.516,0.577,0.802,-17.805,-148.171,-31.402
0.472,0.605,0.833,-19.817,-120.671,-27.317
0.329,0.618,0.798,-21.951,-108.171,-25.0
0.26,0.615,0.743,-19.146,-95.61,-21.037
0.317,0.577,0.761,-17.378,-82.378,-19.329
0.381,0.566,0.816,-17.805,-79.329,-20.305
0.36,0.584,0.828,-20.671,-81.28,-19.695
0.338,0.56,0.823,-18.537,-72.317,-14.146
0.417,0.451,0.892,-3.963,-53.049,-5.244
0.486,0.292,1.013,7.439,-46.037,-1.28
0.404,0.292,1.029,3.354,-52.927,0.549
0.324,0.431,0.922,-3.049,-58.659,5.915
0.325,0.503,0.86,-6.037,-58.72,10.305
0.325,0.511,0.806,-10.854,-54.573,12.988
0.309,0.535,0.803,-14.146,-44.451,14.024
0.296,0.537,0.832,-11.22,-30.244,12.805
0.276,0.483,0.867,-6.829,-17.256,10.793
0.233,0.451,0.917,-3.049,-5.305,10.854
0.203,0.442,0.96,3.049,10.61,13.354
0.241,0.41,0.989,10.976,34.573,17.5
0.253,0.394,1.015,19.39,62.317,21.707
0.258,0.384,1.021,28.232,86.585,24.146
0.25,0.364,1.004,33.476,104.634,25.976
0.29,0.379,0.929,35.366,114.512,26.707
0.313,0.4,0.882,36.341,115.427,24.756
0.239,0.415,0.811,37.012,104.939,21.402
0.167,0.426,0.742,32.5,90.305,19.817
0.139,0.48,0.676,27.256,79.024,18.293
0.172,0.51,0.712,24.329,68.78,17.256
0.208,0.479,0.761,18.72,59.085,16.463
0.174,0.504,0.763,10.854,47.744,16.585
0.208,0.524,0.784,2.378,36.89,18.415
0.198,0.527,0.84,-4.207,25.732,15.732
0.118,0.556,0.823,-0.854,10.061,10.244
0.118,0.528,0.74,5.061,4.512,12.866
0.108,0.491,0.64,8.11,7.683,15.244
0.067,0.53,0.647,14.451,9.207,12.012
0.08,0.531,0.708,22.195,12.439,12.439
0.097,0.504,0.75,28.293,17.866,13.963
0.114,0.515,0.799,33.354,24.512,14.634
0.124,0.532,0.837,39.146,31.707,15.488
0.148,0.525,0.838,43.293,40.122,18.11
0.195,0.524,0.815,43.841,49.939,23.72
