acc_x_axis_g,acc_y_axis_g,acc_z_axis_g,gyr_x_axis_deg/s,gyr_y_axis_deg/s,gyr_z_axis_deg/s
-0.572,0.611,0.56,20.854,153.78,21.159
-0.656,0.662,0.606,39.451,223.232,24.878
-0.638,0.652,0.643,51.22,269.085,22.561
-0.573,0.598,0.698,53.476,281.341,19.573
-0.488,0.54,0.749,53.476,275.488,18.232
-0.429,0.512,0.754,53.659,272.195,12.561
-0.436,0.514,0.75,52.744,269.695,6.768
-0.442,0.536,0.734,49.39,252.683,5.244
-0.415,0.55,0.69,41.28,212.927,5.671
-0.448,0.561,0.645,28.72,157.805,4.817
-0.498,0.594,0.618,12.927,98.354,0.793
-0.415,0.604,0.615,-1.585,44.146,-3.049
-0.164,0.553,0.638,-11.22,-0.183,-5.854
0.191,0.449,0.701,-16.768,-34.695,-6.829
0.531,0.329,0.813,-20.854,-68.902,-7.256
0.783,0.24,0.952,-25.793,-106.28,-6.707
1.023,0.171,1.11,-32.561,-142.378,-7.012
1.259,0.117,1.198,-40.0,-178.476,-9.329
1.246,0.101,1.156,-50.122,-229.268,-12.256
0.922,0.132,1.102,-64.878,-293.293,-15.732
0.633,0.222,1.01,-81.585,-351.524,-19.756
0.371,0.321,0.88,-92.195,-379.146,-24.268
0.064,0.411,0.788,-90.671,-364.573,-27.5
-0.171,0.476,0.76,-78.476,-311.707,-26.159
-0.221,0.492,0.789,-58.476,-227.073,-21.159
-0.115,0.458,0.813,-32.622,-113.659,-11.829
-0.078,0.428,0.791,-5.488,11.037,0.671
-0.168,0.436,0.769,19.085,117.561,13.659
-0.205,0.464,0.787,39.573,190.427,24.268
-0.116,0.469,0.827,50.549,226.037,25.793
-0.047,0.453,0.841,53.659,233.354,25.549
-0.029,0.455,0.819,49.756,211.707,23.476
-0.035,0.487,0.796,41.037,173.537,18.476
-0.044,0.521,0.776,34.024,142.988,12.256
-0.082,0.523,0.775,30.061,126.22,9.634
-0.129,0.527,0.792,27.012,109.207,9.451
-0.179,0.533,0.807,23.963,81.28,7.744
-0.196,0.535,0.808,19.695,54.939,4.451
-0.202,0.527,0.811,15.854,41.768,4.207
-0.212,0.522,0.796,15.488,37.927,4.634
-0.215,0.517,0.766,16.22,35.732,3.293
-0.188,0.503,0.782,14.085,31.037,2.195
-0.085,0.471,0.867,10.122,25.549,0.793
0.065,0.425,0.949,6.463,17.134,-1.463
0.21,0.368,0.995,2.561,4.207,-2.439
0.346,0.307,1.063,-1.341,-12.012,-2.378
0.471,0.26,1.14,-6.159,-34.573,-4.268
0.492,0.248,1.197,-12.195,-64.024,-7.195
0.42,0.282,1.162,-20.061,-98.902,-10.671
0.363,0.346,0.98,-28.72,-134.756,-12.805
0.27,0.411,0.774,-35.549,-162.439,-14.756
0.117,0.438,0.75,-38.293,-171.951,-15.305
0.119,0.407,0.884,-37.683,-161.951,-15.366
0.295,0.36,1.002,-32.988,-136.098,-15.732
0.457,0.316,1.042,-23.415,-93.78,-10.793
0.395,0.302,0.964,-8.963,-37.683,-4.146
0.122,0.344,0.801,6.829,21.951,-0.122
-0.186,0.443,0.685,17.073,69.207,3.049
-0.25,0.528,0.713,18.049,94.207,11.098
-0.133,0.551,0.746,16.098,101.707,20.061
-0.052,0.514,0.708,16.768,98.293,19.512
-0.091,0.488,0.675,19.268,95.793,11.646
-0.151,0.52,0.678,24.39,115.549,7.927
-0.181,0.55,0.702,31.89,151.89,12.5
-0.22,0.544,0.745,38.415,176.341,16.341
-0.302,0.529,0.756,40.976,167.073,17.439
-0.393,0.537,0.762,38.537,136.707,17.378
-0.47,0.549,0.764,31.89,109.39,12.195
-0.541,0.558,0.765,24.756,100.061,4.817
-0.55,0.564,0.771,21.829,100.366,3.78
-0.475,0.558,0.778,20.61,94.573,4.207
-0.411,0.539,0.733,16.707,83.902,1.951
-0.382,0.526,0.703,11.89,76.28,0.976
-0.3,0.532,0.743,6.89,66.463,0.366
-0.138,0.501,0.81,2.744,50.915,0.061
0.071,0.425,0.889,-2.317,29.207,-0.427
0.255,0.346,0.946,-9.817,-1.707,-0.244
0.404,0.301,0.979,-18.598,-42.073,-0.61
0.492,0.278,1.018,-27.195,-85.305,-2.927
0.504,0.271,1.056,-36.585,-124.268,-6.768
0.475,0.292,1.052,-44.39,-160.488,-10.671
0.364,0.329,1.002,-50.183,-196.524,-12.256
0.194,0.364,0.957,-55.671,-226.951,-15.488
0.043,0.395,0.952,-58.598,-242.012,-19.634
0.123,0.395,0.961,-56.768,-236.159,-21.341
0.277,0.352,1.0,-49.939,-208.049,-18.78
0.408,0.29,1.057,-39.451,-162.561,-15.793
0.519,0.25,1.087,-27.134,-108.78,-12.439
0.575,0.24,1.042,-15.305,-55.183,-8.049
0.458,0.267,0.888,-6.402,-8.11,-2.561
0.121,0.346,0.7,-0.671,21.951,1.89
-0.195,0.455,0.625,2.256,28.598,3.415
-0.284,0.548,0.67,2.195,26.89,3.78
-0.179,0.57,0.734,1.707,31.707,6.829
-0.044,0.507,0.778,6.463,52.927,9.085
-0.02,0.45,0.802,17.683,87.561,8.72
-0.096,0.454,0.799,30.732,131.646,8.476
-0.227,0.498,0.785,40.915,170.427,10.671
-0.339,0.541,0.796,45.0,185.854,15.061
-0.375,0.556,0.823,45.732,176.829,16.585
-0.367,0.545,0.837,43.476,153.171,14.695
-0.344,0.546,0.816,37.378,131.28,7.988
-0.372,0.56,0.768,29.024,120.366,1.829
-0.359,0.581,0.757,24.146,118.902,1.89
-0.335,0.574,0.764,23.537,118.841,2.256
-0.349,0.548,0.766,22.195,110.915,2.866
-0.389,0.524,0.742,19.024,93.841,5.061
-0.458,0.526,0.733,15.0,70.549,5.061
-0.489,0.54,0.759,10.732,48.049,3.537
-0.377,0.504,0.801,7.988,31.524,1.341
-0.136,0.435,0.872,4.207,14.634,0.183
0.136,0.365,0.939,-0.976,-6.951,-0.183
0.366,0.319,0.977,-8.659,-32.866,-1.951
0.531,0.285,1.011,-18.293,-61.037,-2.256
0.653,0.263,1.002,-26.646,-88.72,-5.244
0.657,0.248,0.989,-33.963,-120.793,-8.841
0.498,0.253,1.001,-43.171,-164.329,-11.646
0.373,0.278,1.042,-53.72,-212.378,-16.037
0.35,0.306,1.018,-60.976,-244.634,-19.146
0.29,0.287,0.992,-61.22,-246.341,-20.61
0.17,0.297,0.957,-55.122,-216.646,-18.354
0.027,0.337,0.878,-44.024,-162.195,-12.866
-0.057,0.375,0.803,-30.671,-95.732,-6.951
-0.143,0.421,0.765,-17.622,-26.951,-0.427
-0.214,0.471,0.75,-5.549,30.488,4.878
-0.219,0.499,0.734,4.329,69.085,8.232
-0.168,0.481,0.735,11.341,100.427,11.28
-0.146,0.472,0.721,19.39,135.305,12.622
-0.194,0.479,0.72,28.598,158.232,12.927
-0.255,0.506,0.758,33.049,162.195,12.256
-0.29,0.526,0.801,35.549,160.061,11.768
-0.346,0.523,0.817,36.768,154.695,11.341
-0.41,0.522,0.806,36.402,143.841,9.939
-0.444,0.537,0.802,32.378,127.805,7.683
-0.401,0.544,0.81,27.012,113.963,6.646
-0.349,0.528,0.818,23.537,104.268,5.183
-0.316,0.507,0.791,21.098,96.098,3.902
-0.328,0.504,0.743,18.659,84.695,5.976
-0.372,0.532,0.711,16.22,71.402,5.183
-0.38,0.551,0.726,11.829,57.073,4.39
-0.251,0.516,0.778,7.378,38.537,4.634
-0.057,0.432,0.833,3.049,13.232,4.085
0.132,0.361,0.892,-2.073,-15.488,3.537
0.268,0.324,0.954,-8.902,-44.146,2.378
0.343,0.298,1.003,-14.329,-68.72,0.366
0.388,0.285,1.052,-18.415,-88.232,-1.89
0.388,0.287,1.044,-22.561,-111.463,-4.878
0.289,0.314,0.977,-30.122,-146.829,-7.317
0.104,0.367,0.897,-40.183,-184.695,-10.732
-0.059,0.412,0.844,-46.951,-208.902,-15.61
-0.046,0.416,0.868,-47.073,-209.817,-18.78
0.056,0.375,0.951,-41.707,-187.012,-17.866
0.181,0.323,1.004,-33.293,-146.951,-15.0
0.225,0.311,1.022,-22.378,-96.463,-10.915
0.312,0.299,1.066,-10.732,-40.427,-7.805
0.487,0.283,1.104,-1.89,6.89,-5.61
0.55,0.27,1.043,1.037,28.598,-0.488
0.389,0.285,0.877,-1.768,23.415,3.293
0.066,0.365,0.714,-6.585,6.341,4.39
-0.276,0.489,0.641,-10.244,-6.159,5.61
-0.477,0.584,0.684,-9.146,-3.537,5.549
-0.456,0.602,0.772,-5.793,8.598,5.793
-0.338,0.541,0.819,1.829,32.561,7.805
-0.275,0.474,0.838,13.354,71.098,9.817
-0.273,0.463,0.843,25.183,123.902,11.524
-0.282,0.479,0.827,36.463,178.537,14.39
-0.27,0.497,0.818,45.549,209.573,17.561
-0.267,0.502,0.804,48.11,205.305,19.207
-0.312,0.517,0.782,43.049,173.049,17.073
-0.322,0.523,0.79,32.744,131.22,11.341
-0.265,0.519,0.794,21.829,99.146,6.22
-0.283,0.513,0.782,16.707,81.159,3.659
-0.287,0.51,0.783,16.037,67.622,2.439
-0.31,0.51,0.801,13.659,51.463,3.354
-0.378,0.509,0.823,10.976,35.671,5.0
-0.367,0.491,0.852,9.146,24.268,2.805
-0.231,0.442,0.895,6.28,11.829,1.159
-0.04,0.383,0.943,2.073,-3.598,0.915
0.121,0.345,0.968,-2.317,-17.866,0.305
0.174,0.339,0.979,-7.256,-31.463,-1.341
0.167,0.36,0.965,-11.463,-44.512,-2.012
0.193,0.392,0.881,-15.366,-58.72,-5.366
0.246,0.405,0.784,-20.732,-81.768,-9.085
0.153,0.389,0.834,-27.866,-114.024,-12.378
0.064,0.359,0.936,-33.72,-141.951,-14.878
0.13,0.333,1.046,-34.207,-149.268,-16.585
0.262,0.32,1.111,-29.085,-131.402,-17.134
0.241,0.297,1.065,-20.671,-97.317,-15.366
0.1,0.309,1.001,-11.28,-59.695,-13.293
0.002,0.359,0.993,-4.451,-25.61,-11.707
-0.009,0.374,0.923,-2.805,2.988,-7.622
-0.161,0.396,0.802,-4.817,18.902,1.829
-0.399,0.488,0.713,-6.22,24.085,6.463
-0.517,0.575,0.691,-5.183,27.5,5.0
-0.427,0.576,0.725,0.305,50.305,5.61
-0.277,0.512,0.736,8.841,95.366,7.378
-0.24,0.458,0.718,20.549,133.659,8.963
-0.287,0.467,0.717,29.024,145.915,11.707
-0.316,0.502,0.739,32.317,149.939,12.317
-0.324,0.51,0.747,35.427,153.476,10.732
-0.375,0.512,0.745,37.378,144.634,12.683
-0.426,0.531,0.757,33.354,115.793,10.732
-0.425,0.544,0.761,23.354,80.488,7.5
-0.43,0.53,0.773,13.78,57.927,3.11
-0.409,0.518,0.778,9.512,51.28,0.122
-0.414,0.508,0.734,9.634,47.561,0.976
-0.491,0.521,0.691,9.146,39.756,2.317
-0.508,0.55,0.694,6.28,30.61,1.951
-0.372,0.526,0.732,2.927,19.756,1.28
-0.167,0.456,0.785,-0.366,5.366,0.915
0.027,0.39,0.832,-4.939,-11.585,0.244
0.185,0.363,0.895,-10.305,-32.317,-0.854
0.264,0.359,0.99,-15.427,-56.89,-1.524
0.274,0.341,1.054,-21.341,-81.402,-3.598
0.263,0.302,1.103,-27.256,-110.671,-6.037
0.253,0.273,1.105,-34.512,-150.793,-7.683
0.212,0.288,1.064,-42.195,-191.28,-11.159
0.08,0.334,1.022,-46.463,-216.646,-15.244
-0.048,0.375,1.004,-44.512,-218.78,-18.049
0.028,0.389,0.982,-37.195,-198.049,-17.683
0.176,0.385,0.952,-28.354,-161.585,-16.707
0.207,0.375,0.936,-20.854,-120.976,-16.585
0.164,0.365,0.945,-13.11,-80.122,-15.305
0.154,0.366,0.972,-4.756,-38.659,-12.561
0.176,0.379,0.98,3.049,0.183,-8.415
0.164,0.377,0.918,7.317,24.268,-1.951
0.048,0.375,0.817,7.988,28.841,2.988
-0.116,0.404,0.75,7.073,28.232,3.78
-0.209,0.45,0.761,5.549,35.854,4.268
-0.237,0.48,0.758,6.098,52.561,8.415
-0.226,0.489,0.738,8.598,69.573,10.793
-0.2,0.478,0.74,12.927,84.085,9.939
-0.191,0.47,0.738,18.171,100.183,10.671
-0.249,0.475,0.713,21.768,119.817,12.744
-0.326,0.5,0.714,24.939,134.329,13.902
-0.343,0.519,0.759,27.195,134.634,14.573
-0.315,0.507,0.796,27.561,121.89,12.683
-0.313,0.493,0.813,24.573,104.512,9.878
-0.358,0.5,0.803,20.793,92.439,8.598
-0.403,0.527,0.816,18.598,87.5,7.988
-0.391,0.538,0.833,18.049,85.793,7.134
-0.408,0.53,0.82,16.829,81.768,5.671
-0.446,0.53,0.812,15.061,73.11,6.951
-0.427,0.529,0.799,13.293,60.183,7.744
-0.405,0.512,0.797,10.488,48.049,6.28
-0.382,0.494,0.824,8.293,38.232,5.061
-0.318,0.471,0.864,6.585,28.232,4.451
-0.224,0.439,0.887,4.634,14.939,3.963
-0.106,0.408,0.919,1.89,-0.305,3.11
0.05,0.381,0.966,-2.317,-16.768,1.28
0.198,0.355,0.992,-7.012,-37.927,0.0
0.247,0.338,0.962,-11.951,-61.037,-2.073
0.181,0.362,0.881,-15.915,-81.829,-5.854
0.046,0.41,0.805,-18.78,-103.293,-9.756
-0.063,0.424,0.833,-21.951,-125.244,-13.354
-0.044,0.405,0.911,-24.573,-141.585,-16.037
0.069,0.355,0.97,-24.573,-144.756,-16.829
0.114,0.33,0.963,-20.793,-129.878,-16.341
0.003,0.348,0.903,-14.39,-95.427,-14.451
-0.132,0.399,0.87,-5.793,-48.72,-12.195
-0.17,0.446,0.872,0.732,-7.073,-8.72
-0.13,0.448,0.896,0.671,13.659,-2.988
-0.021,0.408,0.919,-3.963,11.829,3.293
0.087,0.368,0.883,-8.72,2.927,7.378
0.139,0.353,0.813,-9.756,3.659,7.256
0.109,0.387,0.759,-5.793,18.354,6.524
0.01,0.444,0.722,0.366,35.061,7.256
-0.107,0.479,0.715,5.976,41.524,7.134
-0.191,0.497,0.722,10.122,38.354,7.012
-0.278,0.5,0.729,12.073,33.598,7.744
-0.384,0.495,0.757,14.268,34.634,8.049
-0.427,0.475,0.806,17.683,45.793,7.622
-0.397,0.465,0.851,23.598,69.39,7.683
-0.373,0.475,0.853,31.098,96.951,8.11
-0.403,0.472,0.804,35.427,119.512,7.439
-0.453,0.482,0.757,35.244,133.78,5.427
-0.434,0.5,0.722,33.293,141.89,4.878
-0.383,0.503,0.698,31.159,144.512,2.378
-0.354,0.483,0.676,28.841,137.805,0.122
-0.336,0.476,0.652,27.683,124.756,0.366
-0.304,0.466,0.639,29.39,115.671,2.378
-0.273,0.459,0.669,33.293,115.305,8.171
-0.357,0.466,0.714,34.756,116.951,9.329
-0.455,0.466,0.695,35.671,112.195,8.354
