acc_x_axis_g,acc_y_axis_g,acc_z_axis_g,gyr_x_axis_deg/s,gyr_y_axis_deg/s,gyr_z_axis_deg/s
-0.077,-0.819,0.512,-1.707,46.463,-3.293
-0.146,-0.85,0.507,0.549,64.268,-1.829
-0.206,-0.828,0.496,2.805,79.634,-0.671
-0.236,-0.819,0.517,3.78,95.915,1.524
-0.238,-0.829,0.539,5.427,112.5,2.683
-0.278,-0.819,0.542,6.402,125.61,2.073
-0.302,-0.799,0.534,5.305,129.268,1.89
-0.337,-0.798,0.515,4.878,127.805,3.171
-0.389,-0.802,0.466,3.72,120.488,3.232
-0.445,-0.814,0.416,2.378,107.073,3.049
-0.501,-0.831,0.378,1.037,88.902,2.012
-0.532,-0.849,0.368,0.488,68.232,0.305
-0.55,-0.87,0.335,0.915,47.683,-1.28
-0.579,-0.886,0.304,1.89,27.317,-3.537
-0.588,-0.906,0.287,4.146,3.537,-4.573
-0.608,-0.914,0.261,5.915,-22.378,-6.098
-0.624,-0.89,0.245,7.012,-49.024,-7.805
-0.631,-0.889,0.22,8.171,-72.744,-10.244
-0.606,-0.878,0.229,8.841,-93.598,-11.768
-0.527,-0.858,0.289,8.78,-112.012,-10.915
-0.476,-0.825,0.34,7.561,-126.646,-10.305
-0.446,-0.807,0.395,6.585,-144.146,-9.512
-0.437,-0.779,0.401,1.646,-162.744,-7.988
-0.432,-0.736,0.428,-7.5,-187.805,-7.561
-0.479,-0.714,0.444,-16.098,-224.329,-12.683
-0.541,-0.729,0.403,-21.341,-269.817,-17.744
-0.489,-0.776,0.337,-23.963,-317.439,-21.707
-0.351,-0.814,0.32,-25.793,-352.683,-24.207
-0.178,-0.843,0.368,-29.024,-370.854,-26.585
-0.051,-0.848,0.376,-25.427,-369.451,-29.634
0.123,-0.845,0.442,-18.659,-346.524,-32.195
0.359,-0.814,0.53,-15.976,-299.939,-29.817
0.54,-0.787,0.589,-4.451,-234.451,-22.622
0.612,-0.867,0.669,5.061,-154.756,-15.183
0.581,-0.837,0.708,5.366,-79.207,-7.012
0.441,-0.792,0.698,6.037,-23.659,-1.829
0.291,-0.786,0.653,6.098,9.695,-1.098
0.213,-0.787,0.634,4.817,28.476,1.098
0.241,-0.778,0.657,3.537,43.72,6.037
0.287,-0.777,0.716,2.866,66.951,10.915
0.301,-0.787,0.781,0.671,97.073,15.244
0.239,-0.791,0.789,-3.049,121.89,18.598
0.086,-0.793,0.747,-6.646,138.171,19.939
0.037,-0.816,0.73,-8.049,153.963,21.037
0.1,-0.839,0.738,-7.256,181.22,22.683
0.167,-0.86,0.74,-3.598,221.89,24.939
0.233,-0.878,0.722,0.915,273.354,26.22
0.273,-0.865,0.673,4.451,331.098,25.61
0.259,-0.842,0.577,8.354,389.085,25.732
0.207,-0.834,0.443,13.841,439.573,27.012
0.134,-0.839,0.314,17.317,471.402,30.854
0.03,-0.841,0.182,18.232,474.085,36.768
-0.189,-0.836,0.083,18.415,448.781,39.817
-0.458,-0.824,0.018,16.829,406.159,37.256
-0.657,-0.801,0.037,13.78,364.512,31.28
-0.725,-0.793,0.128,10.244,332.317,25.915
-0.67,-0.811,0.185,8.232,307.378,25.549
-0.606,-0.84,0.157,9.39,287.317,24.207
-0.612,-0.834,0.113,8.78,260.793,20.61
-0.701,-0.835,0.078,6.402,225.549,19.024
-0.818,-0.856,0.087,3.841,181.342,18.049
-0.903,-0.873,0.088,1.28,134.756,16.585
-0.941,-0.871,0.05,-1.341,88.476,13.11
-0.938,-0.868,0.014,-2.683,44.573,9.573
-0.937,-0.856,-0.014,-4.146,-0.427,6.098
-0.986,-0.833,-0.008,-5.61,-48.72,2.683
-1.005,-0.824,0.019,-5.671,-95.305,-0.305
-0.953,-0.816,0.041,-5.976,-134.085,-3.78
-0.871,-0.817,0.076,-5.244,-161.707,-7.134
-0.758,-0.828,0.09,-3.78,-180.732,-9.329
-0.667,-0.836,0.085,-2.073,-197.073,-11.463
-0.643,-0.835,0.078,-1.28,-216.098,-13.354
-0.637,-0.832,0.076,-1.951,-237.805,-14.268
-0.608,-0.833,0.113,-2.561,-259.207,-15.305
-0.571,-0.837,0.163,-3.78,-275.549,-16.646
-0.518,-0.833,0.22,-3.049,-283.11,-17.988
-0.464,-0.83,0.264,-0.671,-284.39,-20.854
-0.418,-0.809,0.286,-1.341,-276.707,-20.854
-0.341,-0.771,0.364,-5.427,-268.11,-17.561
-0.293,-0.755,0.439,-13.171,-266.22,-16.463
-0.343,-0.746,0.417,-20.244,-269.878,-16.768
-0.369,-0.77,0.396,-23.841,-292.866,-20.427
-0.378,-0.797,0.313,-25.0,-321.585,-21.951
-0.32,-0.828,0.298,-27.866,-352.683,-22.744
-0.247,-0.84,0.301,-26.829,-377.866,-26.585
-0.213,-0.844,0.281,-22.012,-389.634,-29.268
-0.013,-0.825,0.377,-16.402,-380.793,-28.841
0.257,-0.781,0.516,-8.11,-327.195,-27.866
0.574,-0.767,0.669,-2.622,-235.854,-24.146
0.83,-0.785,0.807,-1.646,-120.793,-14.085
0.893,-0.832,0.861,-1.463,-7.805,0.427
0.719,-0.87,0.782,0.854,74.939,11.768
0.463,-0.872,0.68,5.244,123.72,15.671
0.335,-0.861,0.684,7.622,155.61,15.976
0.327,-0.83,0.751,5.549,181.829,17.988
0.211,-0.799,0.736,4.085,212.683,22.988
0.072,-0.799,0.75,5.122,248.415,26.341
0.081,-0.8,0.779,8.476,290.183,26.646
0.096,-0.796,0.761,10.854,331.281,22.5
0.019,-0.784,0.647,13.049,359.939,17.683
-0.066,-0.781,0.478,14.39,367.5,14.024
-0.129,-0.786,0.324,15.854,356.646,14.39
-0.213,-0.794,0.176,17.439,334.207,19.634
-0.292,-0.815,0.105,18.171,299.451,25.183
-0.411,-0.816,0.06,18.476,257.744,29.268
-0.608,-0.813,0.042,20.061,220.305,28.598
-0.686,-0.84,0.109,19.085,186.22,27.256
-0.696,-0.867,0.145,17.378,163.598,28.78
-0.751,-0.889,0.141,17.073,144.817,25.183
-0.809,-0.894,0.144,15.732,117.622,20.915
-0.865,-0.9,0.166,15.854,77.622,16.829
-0.958,-0.897,0.188,15.793,25.183,11.951
-0.919,-0.886,0.197,13.841,-28.902,9.39
-0.838,-0.862,0.235,9.756,-76.829,5.671
-0.805,-0.839,0.301,8.11,-116.89,0.671
-0.749,-0.826,0.307,4.695,-150.671,-2.012
-0.72,-0.802,0.285,-0.854,-184.634,-3.232
-0.716,-0.824,0.313,-1.707,-228.293,-5.244
-0.724,-0.843,0.302,-3.659,-275.0,-8.659
-0.692,-0.829,0.275,-6.402,-309.024,-11.28
-0.481,-0.821,0.323,-7.317,-321.768,-10.305
-0.238,-0.771,0.454,-13.293,-313.902,-7.134
-0.185,-0.697,0.562,-21.524,-308.842,-7.256
-0.329,-0.726,0.504,-25.122,-328.781,-14.512
-0.457,-0.816,0.411,-23.476,-362.317,-22.378
-0.359,-0.901,0.424,-21.829,-385.061,-25.732
-0.126,-0.909,0.469,-19.024,-377.256,-28.476
0.102,-0.887,0.531,-15.366,-335.061,-28.171
0.277,-0.873,0.612,-13.476,-268.171,-25.305
0.368,-0.852,0.701,-12.073,-193.232,-21.829
0.398,-0.796,0.732,-8.049,-124.512,-20.793
0.33,-0.693,0.702,-2.256,-65.793,-20.854
0.24,-0.677,0.624,1.037,-18.171,-15.854
0.342,-0.736,0.607,0.549,22.317,-8.11
0.478,-0.766,0.64,-1.341,60.61,-4.085
0.452,-0.76,0.647,-0.793,93.049,0.244
0.434,-0.757,0.668,-0.976,118.476,8.78
0.459,-0.752,0.708,-1.341,134.085,16.951
0.287,-0.762,0.67,-2.866,147.927,21.037
0.147,-0.775,0.733,-7.012,170.305,24.085
0.209,-0.799,0.871,-9.573,208.476,27.256
0.198,-0.83,0.928,-8.659,264.451,25.0
0.159,-0.839,0.838,-5.61,323.415,20.915
0.1,-0.822,0.669,-2.683,374.512,17.256
0.021,-0.806,0.462,1.646,410.61,14.207
-0.067,-0.809,0.29,6.951,432.378,13.11
-0.144,-0.797,0.222,9.939,436.768,16.28
-0.212,-0.781,0.169,11.28,422.744,22.439
-0.338,-0.782,0.096,12.866,392.927,27.866
-0.475,-0.81,0.042,12.927,356.707,28.11
-0.51,-0.866,0.032,10.122,320.549,26.951
-0.496,-0.932,0.035,9.634,291.524,27.866
-0.541,-0.933,0.005,10.305,267.317,27.927
-0.626,-0.888,0.001,10.183,236.768,27.988
-0.764,-0.849,0.02,11.28,198.537,26.707
-0.901,-0.818,0.06,11.341,155.793,21.89
-0.988,-0.805,0.091,10.488,112.012,16.22
-1.021,-0.805,0.097,10.061,67.317,11.341
-1.047,-0.804,0.095,8.354,14.695,5.488
-1.127,-0.797,0.102,3.354,-48.11,-1.098
-1.162,-0.798,0.122,-1.098,-115.244,-7.012
-1.13,-0.807,0.127,-5.671,-171.646,-12.744
-1.016,-0.787,0.135,-13.72,-217.744,-15.671
-0.896,-0.782,0.157,-17.988,-257.561,-17.439
-0.799,-0.794,0.156,-19.634,-293.963,-22.073
-0.689,-0.809,0.15,-22.012,-319.451,-25.305
-0.494,-0.769,0.245,-26.28,-320.427,-21.402
-0.262,-0.776,0.375,-24.329,-309.024,-20.732
-0.261,-0.808,0.387,-21.28,-306.22,-26.585
-0.443,-0.792,0.305,-23.232,-316.524,-29.329
-0.529,-0.791,0.23,-23.841,-334.512,-30.549
-0.479,-0.822,0.177,-22.866,-345.793,-30.122
-0.321,-0.838,0.242,-23.537,-346.707,-27.317
-0.162,-0.837,0.335,-24.939,-336.159,-26.585
-0.089,-0.831,0.389,-23.11,-318.72,-28.841
-0.08,-0.858,0.399,-16.22,-294.817,-28.659
0.117,-0.874,0.467,-10.366,-261.951,-25.488
0.419,-0.854,0.54,-7.378,-207.317,-21.463
0.594,-0.804,0.643,-5.244,-132.378,-17.988
0.557,-0.762,0.722,-2.378,-54.329,-11.037
0.428,-0.764,0.725,0.61,8.537,-3.293
0.359,-0.784,0.722,1.402,52.683,1.463
0.323,-0.796,0.714,2.256,92.683,5.549
0.349,-0.823,0.77,1.341,134.512,9.634
0.447,-0.798,0.848,-4.146,175.549,16.159
0.384,-0.774,0.801,-5.854,218.598,22.988
0.207,-0.8,0.837,-4.207,265.061,24.695
0.178,-0.817,0.897,-1.768,315.488,25.305
0.146,-0.841,0.827,0.549,370.732,21.28
0.115,-0.861,0.636,3.171,417.195,18.232
0.045,-0.866,0.357,7.378,450.061,20.976
-0.143,-0.852,0.153,12.073,462.805,24.085
-0.312,-0.847,0.087,14.573,452.805,28.598
-0.389,-0.853,0.08,15.793,425.061,34.451
-0.501,-0.845,0.079,14.024,382.866,36.646
-0.699,-0.833,0.085,10.366,330.183,35.244
-0.84,-0.848,0.116,5.305,276.585,33.11
-0.846,-0.869,0.134,1.22,230.305,29.329
-0.795,-0.865,0.096,-0.671,200.915,22.805
-0.762,-0.838,0.039,-1.22,175.244,15.732
-0.813,-0.82,0.008,-0.244,145.366,13.537
-0.862,-0.813,-0.009,0.305,106.585,12.439
-0.923,-0.793,-0.042,-0.732,62.317,9.451
-0.957,-0.81,-0.073,-1.524,17.317,6.829
-0.935,-0.841,-0.105,-0.976,-29.207,4.756
-0.96,-0.839,-0.14,-0.915,-76.585,1.524
-1.004,-0.845,-0.15,0.488,-120.549,-4.146
-0.956,-0.861,-0.145,2.744,-159.024,-10.122
-0.861,-0.865,-0.138,5.671,-196.524,-14.939
-0.851,-0.839,-0.149,7.378,-236.524,-19.512
-0.861,-0.806,-0.136,6.524,-279.268,-23.293
-0.793,-0.79,-0.091,4.939,-321.159,-26.037
-0.698,-0.766,-0.026,0.0,-351.22,-28.232
-0.571,-0.72,0.11,-6.89,-366.646,-30.915
-0.424,-0.683,0.266,-12.317,-365.244,-32.622
-0.233,-0.676,0.375,-14.573,-345.976,-28.11
-0.089,-0.769,0.421,-9.878,-325.122,-29.878
-0.133,-0.852,0.386,-3.659,-312.866,-37.683
-0.199,-0.854,0.336,-4.39,-303.659,-37.683
-0.094,-0.852,0.338,-4.512,-286.281,-30.793
0.062,-0.868,0.374,-6.524,-257.378,-28.78
0.086,-0.856,0.359,-8.537,-221.524,-28.049
0.028,-0.876,0.393,-4.939,-196.281,-25.915
-0.003,-0.891,0.454,-1.585,-188.537,-25.122
0.01,-0.872,0.487,2.195,-189.268,-24.695
0.066,-0.837,0.553,2.317,-185.305,-24.512
0.162,-0.82,0.603,2.744,-168.171,-21.829
0.294,-0.829,0.625,4.573,-136.524,-14.695
0.4,-0.854,0.614,7.195,-99.939,-7.988
0.388,-0.873,0.592,10.976,-67.866,-4.756
0.297,-0.865,0.576,14.451,-47.317,-3.11
0.163,-0.822,0.552,18.171,-43.293,-2.622
-0.004,-0.794,0.479,22.134,-47.195,-1.646
-0.04,-0.803,0.521,23.963,-48.049,-1.341
-0.018,-0.814,0.613,23.902,-41.585,-0.488
-0.029,-0.807,0.714,22.561,-30.61,0.0
0.002,-0.8,0.807,19.878,-19.268,0.732
0.042,-0.82,0.832,17.073,-10.854,2.134
0.025,-0.854,0.796,15.915,-7.744,3.476
-0.021,-0.87,0.747,15.793,-8.841,3.659
