acc_x_axis_g,acc_y_axis_g,acc_z_axis_g,gyr_x_axis_deg/s,gyr_y_axis_deg/s,gyr_z_axis_deg/s
0.12,0.42,0.831,0.122,71.524,28.598
0.204,0.405,0.833,3.354,77.561,26.463
0.261,0.398,0.839,10.061,97.622,26.098
0.248,0.397,0.848,17.805,120.122,27.927
0.178,0.41,0.849,22.927,129.756,27.439
0.121,0.433,0.858,21.707,118.598,24.817
0.136,0.432,0.858,16.341,95.061,21.159
0.119,0.428,0.867,10.183,70.732,16.098
0.095,0.434,0.895,5.671,51.951,12.134
0.078,0.434,0.89,3.72,43.415,9.39
0.018,0.445,0.862,4.207,45.549,8.78
-0.037,0.47,0.839,6.585,52.988,8.293
-0.028,0.497,0.814,9.207,55.427,6.098
-0.012,0.504,0.763,10.122,49.268,3.72
-0.022,0.527,0.69,9.939,40.61,-1.037
-0.04,0.551,0.653,10.0,33.11,-5.061
-0.067,0.548,0.667,11.768,28.171,-8.293
-0.105,0.541,0.701,13.415,22.988,-11.829
-0.082,0.532,0.708,12.683,12.012,-14.756
0.001,0.506,0.722,9.512,-6.22,-17.256
0.101,0.492,0.739,4.024,-26.707,-20.427
0.255,0.468,0.759,-3.841,-45.0,-24.268
0.456,0.42,0.798,-12.256,-63.963,-25.0
0.64,0.369,0.84,-23.049,-88.354,-20.671
0.828,0.335,0.891,-35.183,-116.585,-15.305
0.975,0.301,0.933,-45.488,-149.512,-13.049
1.031,0.267,0.956,-54.878,-187.805,-15.488
1.016,0.268,0.957,-64.024,-228.78,-19.146
0.89,0.3,0.91,-71.098,-265.976,-19.268
0.765,0.338,0.872,-75.671,-292.012,-19.878
0.739,0.347,0.863,-76.402,-300.976,-20.915
0.748,0.318,0.886,-71.768,-288.049,-20.854
0.796,0.28,0.933,-61.951,-250.366,-18.11
0.827,0.261,0.931,-48.232,-189.939,-13.171
0.658,0.277,0.841,-30.854,-113.537,-7.744
0.332,0.354,0.734,-11.707,-32.744,-1.768
0.023,0.459,0.662,4.512,38.902,3.902
-0.175,0.527,0.624,15.61,90.244,7.073
-0.281,0.552,0.62,22.134,124.878,7.988
-0.323,0.559,0.64,27.5,156.951,9.085
-0.278,0.551,0.667,35.732,197.256,12.378
-0.213,0.533,0.709,49.573,253.841,16.951
-0.129,0.504,0.737,65.976,315.732,20.427
-0.068,0.488,0.749,79.085,354.573,23.11
-0.049,0.493,0.754,81.463,350.915,23.415
-0.064,0.502,0.717,72.317,312.195,22.256
-0.137,0.521,0.682,58.598,254.268,17.622
-0.174,0.532,0.669,43.78,188.537,12.134
-0.152,0.517,0.672,28.963,125.488,5.854
-0.102,0.494,0.703,15.366,71.524,2.256
0.034,0.462,0.735,4.634,31.951,-0.671
0.205,0.434,0.765,-3.049,5.183,-2.744
0.393,0.396,0.82,-8.476,-13.902,-4.024
0.549,0.35,0.889,-14.512,-33.354,-5.549
0.626,0.324,0.945,-22.744,-61.646,-6.341
0.685,0.316,0.993,-32.744,-101.463,-9.573
0.701,0.311,1.034,-44.512,-149.207,-15.793
0.67,0.299,1.042,-55.854,-198.598,-21.22
0.611,0.306,1.013,-65.549,-241.646,-26.829
0.481,0.339,0.956,-71.768,-269.512,-30.305
0.425,0.366,0.957,-72.317,-274.207,-31.768
0.552,0.334,1.005,-67.134,-254.512,-30.732
0.624,0.297,1.014,-57.134,-215.671,-27.317
0.55,0.316,0.976,-44.878,-165.915,-21.829
0.447,0.353,0.916,-31.646,-109.573,-13.78
0.274,0.387,0.852,-17.561,-50.732,-7.744
0.077,0.436,0.814,-4.39,1.829,-1.768
-0.018,0.473,0.801,5.549,39.39,4.024
-0.042,0.482,0.799,11.951,61.098,8.537
-0.029,0.48,0.796,17.317,84.085,12.5
-0.008,0.484,0.795,26.951,124.146,17.988
0.018,0.488,0.81,40.0,171.402,24.451
0.101,0.476,0.845,50.671,209.634,29.512
0.211,0.445,0.865,56.646,228.902,32.805
0.212,0.427,0.845,57.622,223.232,34.207
0.058,0.454,0.816,52.805,196.098,32.927
-0.093,0.493,0.815,44.573,161.707,29.939
-0.128,0.498,0.829,37.012,131.646,26.585
-0.079,0.469,0.846,30.244,107.256,23.171
0.003,0.438,0.846,23.78,87.378,21.098
0.046,0.424,0.839,18.659,75.61,20.488
0.054,0.429,0.854,17.256,79.756,21.22
0.097,0.426,0.862,19.878,99.268,22.866
0.128,0.412,0.882,24.207,117.195,23.78
0.13,0.406,0.876,24.634,113.659,22.744
0.069,0.421,0.853,19.817,91.098,19.024
-0.045,0.452,0.829,13.354,62.805,12.988
-0.131,0.476,0.816,7.683,41.037,9.512
-0.148,0.479,0.828,5.427,29.329,5.61
-0.157,0.469,0.839,4.146,21.098,2.012
-0.159,0.468,0.844,2.561,16.341,-0.244
-0.111,0.469,0.865,2.561,20.488,-1.341
-0.067,0.457,0.859,5.488,33.415,-1.707
-0.117,0.464,0.813,9.512,48.841,-2.073
-0.153,0.499,0.779,11.89,56.402,-2.012
-0.146,0.506,0.759,11.707,50.427,-2.256
-0.142,0.507,0.735,10.244,36.463,-3.537
-0.136,0.528,0.718,8.537,20.671,-5.122
-0.078,0.531,0.733,7.195,4.451,-6.646
0.047,0.509,0.769,6.585,-9.451,-8.598
0.175,0.476,0.806,5.488,-19.146,-10.671
0.265,0.449,0.856,3.476,-30.366,-11.524
0.321,0.438,0.913,-0.671,-50.61,-11.829
0.337,0.423,0.95,-8.354,-76.768,-13.598
0.298,0.422,0.97,-17.012,-103.659,-16.341
0.266,0.426,0.976,-26.951,-132.012,-17.744
0.249,0.42,0.979,-37.439,-158.841,-17.988
0.228,0.414,0.977,-45.488,-174.817,-18.72
0.208,0.418,0.967,-49.146,-174.146,-18.232
0.187,0.432,0.944,-48.293,-158.293,-14.451
0.173,0.427,0.932,-43.598,-131.402,-8.902
0.188,0.422,0.914,-37.439,-99.39,-3.476
0.227,0.404,0.906,-30.366,-69.329,2.988
0.305,0.358,0.914,-22.988,-43.72,7.256
0.373,0.327,0.934,-16.829,-23.963,9.756
0.39,0.325,0.945,-11.829,-9.329,12.561
0.389,0.331,0.98,-8.598,0.244,16.159
0.45,0.327,1.04,-7.134,4.634,19.268
0.568,0.296,1.071,-6.585,5.854,20.915
0.549,0.275,1.017,-6.28,5.183,19.817
0.357,0.308,0.916,-6.402,2.927,16.341
0.128,0.38,0.805,-6.341,0.549,10.122
-0.068,0.451,0.747,-5.427,1.402,6.28
-0.17,0.494,0.726,-2.988,9.756,5.61
-0.216,0.521,0.736,1.463,27.866,6.89
-0.209,0.522,0.756,8.902,58.902,9.024
-0.177,0.497,0.767,21.524,111.585,12.195
-0.222,0.495,0.762,38.232,180.183,13.963
-0.31,0.518,0.753,53.963,237.439,14.024
-0.359,0.535,0.744,61.89,260.366,12.317
-0.352,0.535,0.74,60.793,252.317,11.89
-0.334,0.522,0.741,55.549,229.512,10.61
-0.317,0.523,0.731,48.72,203.659,7.073
-0.323,0.523,0.744,42.439,180.854,4.817
-0.332,0.514,0.738,37.134,166.768,3.171
-0.398,0.52,0.708,34.512,158.232,1.951
-0.489,0.544,0.688,31.159,142.317,0.0
-0.501,0.556,0.663,24.878,115.122,-2.622
-0.453,0.556,0.655,16.646,84.268,-4.024
-0.33,0.545,0.668,9.268,56.89,-3.72
-0.134,0.508,0.705,3.598,32.439,-4.207
0.095,0.454,0.785,-1.463,7.927,-3.72
0.324,0.398,0.89,-6.341,-16.341,-4.268
0.512,0.352,0.986,-12.012,-44.207,-5.61
0.611,0.316,1.051,-18.902,-82.012,-5.915
0.571,0.299,1.067,-28.598,-130.732,-7.683
0.456,0.314,1.047,-39.512,-183.171,-9.817
0.379,0.35,1.003,-49.573,-231.463,-11.707
0.271,0.377,0.954,-57.5,-265.976,-13.537
0.219,0.397,0.945,-61.341,-276.402,-13.963
0.236,0.39,0.943,-58.293,-258.232,-13.537
0.162,0.394,0.916,-49.451,-214.451,-11.159
0.053,0.424,0.896,-37.012,-151.89,-6.341
0.07,0.44,0.915,-22.5,-83.415,-2.012
0.158,0.42,0.915,-8.963,-27.195,1.28
0.118,0.402,0.887,0.854,12.073,5.061
-0.027,0.434,0.829,6.89,39.329,8.049
-0.144,0.48,0.789,11.341,57.134,11.28
-0.159,0.49,0.79,14.207,71.524,14.451
-0.119,0.477,0.814,17.561,86.585,17.073
-0.093,0.463,0.833,20.549,92.927,16.768
-0.146,0.467,0.815,22.134,93.476,15.671
-0.218,0.481,0.827,25.427,107.134,14.817
-0.192,0.492,0.844,30.854,133.841,13.78
-0.193,0.483,0.816,34.817,149.512,13.11
-0.265,0.492,0.792,32.927,141.098,11.89
-0.301,0.528,0.788,27.744,121.463,11.098
-0.288,0.537,0.794,24.573,108.902,9.451
-0.275,0.519,0.802,24.512,109.39,7.378
-0.285,0.512,0.787,24.451,111.646,5.488
-0.343,0.529,0.752,23.171,104.878,4.939
-0.42,0.544,0.706,21.341,95.549,4.451
-0.485,0.555,0.685,19.756,92.012,2.317
-0.517,0.567,0.677,19.39,86.768,0.183
-0.518,0.554,0.652,17.561,72.317,-2.622
-0.471,0.545,0.647,13.171,54.512,-5.061
-0.281,0.529,0.681,9.451,40.854,-7.012
0.06,0.465,0.767,7.256,28.354,-9.878
0.429,0.375,0.91,3.11,7.5,-11.524
0.744,0.273,1.097,-5.305,-26.463,-10.976
0.964,0.189,1.246,-16.585,-72.622,-11.402
0.938,0.152,1.236,-29.512,-126.646,-12.134
0.613,0.202,1.101,-44.146,-185.671,-14.573
0.329,0.303,0.99,-60.061,-249.878,-16.159
0.257,0.375,0.942,-76.646,-312.073,-16.037
0.257,0.374,0.91,-88.841,-347.378,-16.22
0.162,0.371,0.822,-89.817,-336.22,-15.549
-0.03,0.425,0.729,-76.707,-275.061,-13.78
-0.167,0.5,0.713,-51.402,-171.951,-9.634
-0.136,0.524,0.773,-20.976,-48.537,-1.89
-0.019,0.48,0.827,5.244,52.5,7.256
-0.051,0.444,0.813,22.195,103.659,14.817
-0.221,0.475,0.764,29.39,122.317,18.902
-0.344,0.539,0.769,34.146,144.329,19.39
-0.343,0.549,0.819,40.122,173.171,18.598
-0.275,0.51,0.849,44.451,188.841,17.866
-0.217,0.473,0.86,43.902,181.463,17.927
-0.228,0.476,0.832,39.634,164.695,16.585
-0.286,0.521,0.792,36.707,160.244,14.451
-0.328,0.554,0.77,36.585,166.585,11.402
-0.347,0.561,0.743,35.915,162.073,11.28
-0.388,0.558,0.727,31.159,137.683,11.707
-0.418,0.558,0.732,23.841,107.256,10.488
-0.42,0.541,0.767,18.415,85.976,6.89
-0.409,0.526,0.761,16.89,76.524,4.512
-0.439,0.519,0.711,16.951,71.646,3.049
-0.453,0.537,0.705,15.366,61.341,2.378
-0.245,0.51,0.78,10.732,42.378,0.61
0.162,0.398,0.897,3.72,18.841,-2.683
0.563,0.271,1.061,-3.476,-6.768,-5.976
0.803,0.199,1.15,-10.122,-35.061,-8.963
0.728,0.183,1.076,-16.524,-67.256,-12.378
0.308,0.268,0.943,-23.354,-102.988,-15.61
-0.048,0.41,0.892,-31.524,-144.329,-19.207
-0.146,0.478,0.87,-41.402,-195.427,-21.768
-0.097,0.429,0.905,-52.012,-242.744,-23.293
0.033,0.356,1.002,-57.317,-254.573,-23.415
0.153,0.314,1.0,-49.817,-210.488,-20.488
0.025,0.336,0.886,-30.61,-117.317,-13.78
-0.188,0.433,0.774,-7.378,-5.854,-7.866
-0.253,0.529,0.738,10.915,73.841,-1.159
-0.221,0.551,0.725,17.927,97.866,5.732
-0.212,0.527,0.732,13.293,89.756,8.78
-0.206,0.51,0.783,7.5,79.756,8.598
-0.199,0.49,0.823,9.085,81.463,9.085
-0.246,0.483,0.831,16.829,100.183,8.11
-0.301,0.509,0.827,25.244,121.463,10.61
-0.319,0.534,0.822,30.366,122.988,14.268
-0.343,0.546,0.812,29.268,103.232,15.976
-0.331,0.552,0.787,24.024,83.232,13.902
-0.333,0.553,0.775,18.841,72.866,10.671
-0.356,0.558,0.786,16.037,66.341,9.756
-0.318,0.555,0.798,13.902,61.585,8.598
-0.267,0.539,0.808,12.073,55.854,7.683
-0.245,0.522,0.802,10.61,43.78,7.317
-0.252,0.52,0.798,7.805,27.317,6.768
-0.249,0.517,0.797,3.232,8.598,5.366
-0.16,0.492,0.83,-1.402,-10.854,3.232
0.035,0.44,0.886,-6.524,-30.0,1.402
0.18,0.379,0.914,-12.134,-52.134,0.122
0.198,0.363,0.924,-17.622,-75.244,-2.195
0.178,0.38,0.929,-22.561,-94.024,-5.061
0.238,0.369,0.963,-26.402,-110.427,-7.683
0.338,0.325,1.003,-30.305,-128.293,-10.61
0.366,0.294,1.009,-34.817,-150.122,-13.841
0.295,0.304,1.011,-38.659,-170.366,-17.195
0.246,0.329,0.955,-39.268,-173.963,-20.0
0.176,0.341,0.911,-35.305,-153.476,-23.049
0.032,0.381,0.883,-26.707,-121.22,-24.268
-0.089,0.412,0.91,-19.146,-93.415,-24.024
-0.065,0.406,0.952,-14.268,-68.598,-22.439
0.042,0.364,0.956,-8.78,-35.976,-18.902
0.037,0.353,0.904,-0.732,7.5,-14.146
-0.102,0.375,0.843,6.646,47.744,-7.439
-0.198,0.409,0.844,11.28,78.902,-1.22
-0.13,0.425,0.863,13.598,99.756,2.5
-0.051,0.415,0.83,15.854,109.512,5.244
-0.078,0.423,0.781,16.22,107.195,5.976
-0.172,0.474,0.738,15.732,102.256,6.829
-0.271,0.516,0.715,17.439,109.512,8.476
-0.376,0.547,0.726,21.829,124.512,10.244
-0.388,0.564,0.768,25.061,129.512,13.171
-0.34,0.536,0.805,25.366,114.695,14.573
-0.323,0.501,0.828,22.683,92.988,14.451
-0.33,0.51,0.823,19.695,83.598,13.415
-0.326,0.533,0.803,20.305,87.988,12.805
-0.315,0.553,0.751,22.683,92.439,13.354
-0.345,0.566,0.713,22.988,88.902,12.439
-0.389,0.581,0.707,20.61,74.878,11.098
-0.393,0.594,0.693,16.89,54.817,9.451
-0.416,0.597,0.688,12.988,37.073,7.378
-0.422,0.599,0.744,10.732,23.963,6.098
-0.242,0.565,0.869,10.244,10.915,5.732
-0.011,0.471,0.934,8.902,-3.171,5.183
0.107,0.396,0.932,6.037,-16.89,4.024
0.169,0.387,0.969,1.402,-30.915,2.195
0.292,0.368,1.02,-4.451,-50.305,1.524
0.379,0.335,1.008,-10.732,-74.024,0.183
0.294,0.337,0.942,-17.195,-99.024,-3.841
0.073,0.401,0.848,-23.659,-130.366,-7.866
-0.111,0.443,0.835,-29.39,-160.244,-11.768
-0.108,0.432,0.908,-33.659,-169.878,-16.402
0.032,0.376,0.981,-31.341,-156.646,-18.537
0.146,0.336,1.0,-23.537,-131.341,-16.707
0.151,0.333,0.968,-15.549,-95.671,-14.878
0.071,0.36,0.909,-8.049,-47.073,-12.012
-0.054,0.411,0.854,-0.976,0.488,-6.768
-0.11,0.453,0.821,1.402,25.549,-1.585
-0.107,0.474,0.806,-1.28,24.085,1.22
-0.126,0.477,0.793,-4.817,12.988,3.049
-0.206,0.479,0.78,-5.549,12.805,2.5
-0.238,0.483,0.798,-2.683,29.207,3.171
-0.188,0.483,0.834,1.402,50.549,7.195
-0.141,0.48,0.845,5.183,62.317,8.72
-0.18,0.479,0.838,6.707,61.037,8.354
-0.241,0.495,0.837,7.317,57.012,6.402
-0.251,0.498,0.844,9.451,61.22,3.963
-0.234,0.491,0.853,12.317,72.805,2.012
-0.22,0.485,0.854,14.085,77.805,1.707
-0.22,0.484,0.829,14.451,70.366,3.415
-0.249,0.5,0.804,15.0,61.402,4.817
-0.279,0.523,0.799,15.915,60.671,4.817
-0.253,0.534,0.804,16.341,60.305,5.061
-0.229,0.518,0.804,14.817,51.28,6.89
-0.236,0.505,0.812,11.951,37.256,7.073
-0.241,0.505,0.809,10.244,26.402,5.854
-0.196,0.505,0.828,9.939,20.366,4.512
-0.063,0.484,0.878,10.305,17.317,3.841
-0.006,0.457,0.879,10.305,12.866,3.902
-0.033,0.445,0.844,9.512,5.183,3.902
-0.09,0.486,0.829,7.622,-1.951,3.171
-0.153,0.531,0.818,4.817,-6.768,3.11
-0.211,0.537,0.807,2.439,-12.195,2.378
-0.238,0.528,0.814,-0.244,-20.61,1.037
-0.256,0.525,0.838,-2.378,-28.476,0.549
-0.277,0.519,0.846,-2.561,-28.11,0.915
-0.238,0.497,0.868,-3.171,-19.268,0.0
-0.115,0.462,0.9,-2.256,-5.671,-1.037
-0.021,0.433,0.909,0.244,5.0,-0.854
-0.046,0.435,0.875,0.244,10.061,-0.671
-0.139,0.471,0.828,-1.89,8.354,-1.768
-0.186,0.508,0.807,-3.72,1.951,-2.195
-0.169,0.515,0.79,-5.183,-7.5,-2.195
-0.188,0.497,0.78,-7.622,-19.085,-1.89
-0.224,0.487,0.806,-9.573,-29.817,-1.463
-0.205,0.476,0.857,-9.024,-30.366,-1.28
-0.176,0.449,0.883,-5.244,-15.854,-1.707
-0.216,0.436,0.863,-0.854,3.902,-1.829
-0.259,0.452,0.838,1.829,14.939,-1.768
-0.275,0.473,0.812,1.585,15.915,-1.463
-0.292,0.488,0.796,-0.305,14.573,-2.256
-0.299,0.495,0.788,-2.744,12.622,-3.537
-0.261,0.5,0.786,-4.756,6.22,-4.146
-0.196,0.487,0.795,-6.707,-2.927,-3.598
-0.11,0.462,0.818,-8.598,-9.207,-4.329
-0.022,0.438,0.858,-9.512,-14.878,-5.732
0.047,0.428,0.884,-10.0,-26.524,-5.427
0.103,0.414,0.912,-11.768,-44.085,-5.549
0.185,0.384,0.965,-15.122,-64.146,-6.037
0.359,0.338,1.057,-18.841,-85.488,-7.5
0.568,0.287,1.119,-23.11,-107.561,-8.841
0.646,0.249,1.135,-28.049,-126.89,-10.183
0.608,0.252,1.075,-31.585,-138.902,-11.037
0.435,0.299,0.928,-32.256,-141.341,-10.61
0.097,0.385,0.761,-31.28,-136.098,-9.817
-0.22,0.499,0.679,-29.634,-124.878,-9.024
-0.383,0.58,0.669,-26.402,-107.378,-6.22
-0.366,0.58,0.69,-19.207,-75.549,-1.768
-0.298,0.551,0.717,-5.732,-17.561,1.829
-0.289,0.523,0.756,12.256,59.573,3.354
-0.338,0.503,0.777,31.829,139.024,7.561
-0.392,0.508,0.79,47.012,204.329,11.89
-0.401,0.524,0.799,54.39,238.72,15.793
-0.381,0.538,0.799,54.329,233.476,18.537
-0.364,0.546,0.771,46.89,201.89,17.439
-0.387,0.551,0.735,37.317,172.317,12.317
-0.4,0.563,0.716,30.366,155.366,7.195
-0.384,0.576,0.705,26.22,145.854,5.183
-0.403,0.571,0.684,23.354,133.598,4.024
-0.435,0.564,0.681,20.976,113.841,3.72
-0.453,0.565,0.687,19.207,93.293,3.902
-0.477,0.556,0.713,17.622,78.293,3.659
-0.478,0.553,0.745,15.732,67.927,3.415
-0.498,0.541,0.746,12.744,56.89,2.927
-0.531,0.538,0.734,9.573,42.622,1.646
-0.498,0.538,0.74,5.305,27.012,0.061
-0.39,0.518,0.749,-0.793,11.707,-1.707
-0.221,0.467,0.771,-6.22,-6.524,-3.537
-0.039,0.423,0.809,-12.134,-28.78,-4.39
0.119,0.394,0.858,-18.232,-52.256,-6.037
0.218,0.373,0.919,-23.293,-75.915,-7.805
0.282,0.355,0.97,-28.598,-100.061,-10.976
0.355,0.327,1.032,-34.39,-131.159,-13.902
0.431,0.297,1.1,-41.159,-170.366,-16.585
0.442,0.276,1.135,-48.659,-208.232,-19.329
0.373,0.277,1.181,-53.72,-232.927,-21.89
0.431,0.292,1.177,-54.451,-238.354,-22.439
0.501,0.287,1.025,-51.585,-223.841,-21.159
0.266,0.279,0.822,-46.037,-194.451,-18.902
-0.126,0.34,0.726,-39.756,-157.317,-16.159
-0.355,0.437,0.701,-31.707,-115.183,-13.049
-0.423,0.495,0.678,-20.671,-64.634,-9.329
-0.377,0.533,0.671,-6.159,-5.61,-5.427
-0.321,0.525,0.688,10.061,53.537,-2.134
-0.264,0.496,0.731,25.854,111.585,2.439
-0.176,0.476,0.776,36.829,169.39,6.22
-0.133,0.458,0.739,43.232,215.427,14.756
-0.242,0.472,0.689,48.841,225.061,26.159
-0.379,0.556,0.686,50.183,197.012,23.841
-0.41,0.609,0.688,45.183,158.049,14.451
-0.396,0.596,0.698,39.085,128.537,10.976
-0.373,0.577,0.688,32.561,112.927,9.024
-0.385,0.576,0.688,27.866,102.5,6.22
-0.396,0.582,0.722,25.671,93.171,4.573
-0.395,0.577,0.748,24.695,94.573,4.695
-0.416,0.568,0.73,26.768,101.646,6.341
-0.459,0.575,0.714,29.695,96.402,9.146
-0.472,0.589,0.707,27.134,83.537,9.329
-0.529,0.587,0.693,21.829,73.963,8.537
-0.593,0.593,0.674,17.866,66.22,8.049
-0.636,0.603,0.652,14.207,56.829,6.341
-0.666,0.591,0.633,10.976,45.183,6.28
-0.635,0.578,0.649,7.317,34.878,5.427
-0.531,0.551,0.688,3.476,26.341,3.537
-0.317,0.493,0.753,-0.549,13.902,2.195
-0.042,0.421,0.84,-4.695,-2.378,0.915
0.208,0.347,0.954,-10.793,-21.829,-1.341
0.415,0.273,1.08,-17.012,-47.012,-4.207
0.535,0.237,1.149,-24.878,-79.085,-7.256
0.472,0.23,1.125,-34.695,-118.293,-11.951
0.223,0.288,1.052,-45.183,-165.61,-16.341
0.012,0.375,1.003,-56.463,-212.805,-19.878
-0.025,0.414,0.98,-65.0,-245.305,-23.171
0.001,0.396,0.953,-66.159,-248.354,-24.268
0.026,0.356,0.904,-58.902,-215.854,-23.963
-0.041,0.353,0.836,-44.451,-155.0,-19.451
-0.183,0.398,0.736,-26.768,-80.244,-12.073
-0.312,0.466,0.673,-9.634,-5.244,-6.707
-0.29,0.511,0.692,4.207,47.439,-0.976
-0.217,0.505,0.72,13.11,71.28,2.988
-0.214,0.472,0.732,16.707,82.134,4.329
-0.274,0.476,0.718,18.293,94.146,4.573
-0.361,0.513,0.705,22.073,112.683,6.585
-0.4,0.549,0.705,28.11,129.268,9.146
-0.419,0.558,0.718,32.073,132.866,9.817
-0.445,0.555,0.725,32.195,121.037,10.0
-0.479,0.563,0.73,30.793,107.988,10.61
-0.486,0.574,0.72,29.024,106.768,10.122
-0.482,0.572,0.721,28.963,116.463,8.598
-0.497,0.567,0.709,30.244,123.415,9.024
-0.524,0.571,0.686,29.695,119.146,10.061
-0.55,0.583,0.69,27.378,107.744,11.585
-0.575,0.578,0.693,24.329,96.037,11.951
-0.609,0.57,0.678,21.402,86.707,11.098
-0.661,0.587,0.646,18.415,74.39,9.878
-0.707,0.605,0.623,14.512,58.11,9.207
-0.671,0.607,0.64,10.366,42.622,8.659
-0.497,0.568,0.709,6.768,27.744,6.829
-0.246,0.487,0.787,2.988,11.22,5.0
-0.014,0.405,0.879,-1.037,-7.073,4.451
0.218,0.358,0.986,-6.28,-27.012,2.866
0.42,0.325,1.057,-11.402,-50.61,-0.122
0.475,0.303,1.078,-16.707,-82.378,-3.049
0.341,0.313,1.033,-24.756,-125.427,-6.646
0.075,0.39,0.947,-35.244,-177.073,-9.878
-0.099,0.47,0.881,-45.488,-223.476,-13.293
-0.132,0.49,0.846,-52.073,-249.024,-16.829
-0.113,0.446,0.847,-51.463,-245.427,-18.293
-0.069,0.406,0.896,-42.988,-211.829,-17.012
0.017,0.387,0.952,-30.244,-151.28,-14.085
0.07,0.378,0.93,-15.244,-74.085,-10.488
-0.06,0.393,0.82,0.0,-0.976,-6.22
-0.251,0.449,0.702,10.122,43.902,-3.415
-0.345,0.513,0.659,12.683,58.171,-1.341
-0.306,0.542,0.673,9.268,55.61,1.524
-0.261,0.531,0.693,5.671,52.5,3.963
-0.274,0.519,0.696,7.195,54.695,5.732
-0.321,0.533,0.729,12.988,66.402,7.683
-0.31,0.544,0.749,19.756,89.146,8.963
-0.327,0.55,0.737,25.183,113.171,8.841
-0.397,0.545,0.712,27.927,119.756,9.878
-0.449,0.558,0.714,26.159,104.146,11.098
-0.455,0.562,0.727,22.378,85.061,9.634
-0.439,0.549,0.734,18.232,76.768,5.854
-0.444,0.537,0.73,16.22,76.768,2.805
-0.435,0.541,0.733,15.122,74.878,2.195
-0.384,0.531,0.767,14.756,72.073,2.195
-0.339,0.505,0.789,13.537,70.0,4.146
-0.362,0.487,0.792,11.707,65.427,5.244
-0.408,0.499,0.798,9.878,53.415,4.39
-0.426,0.518,0.805,6.463,37.744,3.293
-0.415,0.514,0.802,2.805,24.756,1.463
-0.398,0.51,0.796,0.305,14.939,-0.244
-0.382,0.511,0.791,-1.098,7.378,-0.061
-0.393,0.521,0.758,-2.5,3.537,-0.244
-0.45,0.539,0.712,-2.988,5.305,-0.61
-0.548,0.568,0.688,-2.317,9.39,-1.951
-0.629,0.587,0.692,-0.854,10.122,-2.927
-0.625,0.582,0.695,-0.122,6.098,-3.354
-0.545,0.56,0.711,-0.305,0.976,-4.146
-0.393,0.515,0.759,-0.061,-3.902,-4.878
-0.139,0.451,0.873,0.122,-8.902,-5.183
0.186,0.383,1.009,-0.915,-15.854,-5.732
0.445,0.314,1.05,-3.537,-28.476,-6.159
0.439,0.278,1.014,-8.476,-52.073,-6.768
0.264,0.314,0.935,-15.976,-87.988,-8.476
0.125,0.374,0.893,-25.549,-131.341,-10.305
0.166,0.403,0.889,-34.939,-173.11,-11.646
0.243,0.395,0.851,-41.524,-203.049,-12.317
0.131,0.392,0.781,-41.768,-209.268,-10.732
-0.043,0.431,0.743,-33.598,-179.512,-7.012
-0.139,0.479,0.709,-20.305,-114.451,-3.415
-0.196,0.502,0.666,-5.61,-38.659,2.378
-0.317,0.521,0.635,7.5,18.049,9.634
-0.481,0.549,0.642,14.207,42.317,12.073
-0.564,0.576,0.693,17.866,55.488,12.744
-0.588,0.575,0.72,20.915,79.939,10.976
-0.626,0.57,0.723,24.939,113.11,11.89
-0.645,0.592,0.71,31.098,138.598,14.634
-0.615,0.608,0.685,33.232,149.695,14.512
-0.585,0.602,0.659,32.317,157.439,11.22
-0.581,0.596,0.639,31.159,164.695,8.72
-0.598,0.601,0.624,29.878,163.354,7.744
-0.609,0.604,0.625,28.415,150.122,7.195
-0.587,0.59,0.645,24.878,130.244,5.427
-0.572,0.568,0.623,20.915,107.927,4.817
-0.666,0.563,0.599,18.049,82.317,5.549
-0.722,0.605,0.618,13.659,55.549,5.61
-0.597,0.614,0.677,8.293,31.951,4.512
-0.338,0.542,0.762,3.293,10.976,2.012
-0.05,0.436,0.855,-2.256,-10.976,-0.488
0.13,0.364,0.918,-9.207,-36.524,-2.073
0.168,0.351,0.926,-15.915,-63.293,-2.683
0.109,0.394,0.892,-22.195,-87.561,-5.183
0.01,0.446,0.854,-28.049,-116.22,-8.049
-0.058,0.464,0.832,-33.963,-157.439,-8.72
-0.085,0.45,0.838,-42.378,-202.073,-10.061
-0.037,0.43,0.884,-49.695,-229.268,-12.927
0.054,0.406,0.938,-48.293,-224.39,-15.732
0.082,0.391,0.958,-38.78,-190.244,-15.305
-0.005,0.395,0.938,-25.854,-141.28,-12.744
-0.091,0.429,0.943,-14.878,-98.049,-10.0
-0.027,0.44,0.972,-10.0,-72.866,-8.049
0.107,0.418,0.996,-10.549,-63.354,-6.585
0.16,0.383,0.965,-12.866,-60.366,-5.061
0.101,0.377,0.877,-12.866,-53.354,-4.207
-0.041,0.403,0.792,-9.817,-35.793,-2.744
-0.153,0.458,0.75,-3.841,-7.012,-2.134
-0.205,0.506,0.729,2.073,19.39,-1.524
-0.308,0.535,0.678,6.341,33.354,0.793
-0.422,0.557,0.655,10.244,45.183,3.11
-0.469,0.591,0.684,14.329,68.232,5.061
-0.409,0.581,0.719,20.488,103.841,8.293
-0.375,0.527,0.739,27.866,138.476,11.707
-0.404,0.507,0.745,33.78,157.317,12.683
-0.427,0.541,0.733,37.134,157.256,14.939
-0.449,0.571,0.702,36.159,145.915,16.159
-0.468,0.586,0.68,31.098,132.378,14.817
-0.461,0.595,0.674,27.012,119.268,11.951
-0.462,0.594,0.672,23.476,102.683,9.451
-0.475,0.594,0.679,19.329,89.573,8.11
-0.48,0.598,0.68,16.463,82.988,7.439
-0.5,0.592,0.656,17.195,77.744,8.72
-0.516,0.593,0.657,18.78,68.232,10.183
-0.517,0.599,0.653,17.317,57.012,10.488
-0.542,0.591,0.654,14.695,45.366,10.671
-0.49,0.586,0.713,11.646,33.171,9.39
-0.376,0.554,0.758,7.866,21.159,7.927
-0.302,0.502,0.794,4.329,8.72,6.341
-0.262,0.492,0.84,0.0,-5.244,3.841
-0.188,0.479,0.879,-5.427,-20.854,1.585
-0.089,0.454,0.907,-9.878,-39.512,0.122
-0.027,0.438,0.908,-14.634,-61.159,-1.768
-0.033,0.44,0.896,-20.305,-84.939,-4.939
-0.069,0.461,0.871,-23.598,-107.744,-5.671
-0.122,0.483,0.833,-26.463,-121.098,-7.256
-0.173,0.502,0.815,-26.402,-123.659,-10.488
-0.223,0.514,0.798,-23.537,-124.512,-11.768
-0.25,0.517,0.796,-21.28,-121.402,-12.622
-0.244,0.505,0.816,-18.232,-107.439,-13.415
-0.208,0.48,0.832,-13.171,-82.134,-13.171
-0.194,0.463,0.857,-7.256,-52.805,-12.927
-0.175,0.457,0.87,-2.744,-27.683,-11.28
-0.151,0.458,0.863,-0.854,-11.159,-10.0
-0.136,0.461,0.843,-0.915,-3.293,-9.634
-0.133,0.456,0.82,-3.049,-2.927,-9.39
-0.134,0.454,0.82,-6.524,-7.866,-8.171
-0.112,0.457,0.84,-9.695,-14.634,-7.317
-0.079,0.45,0.879,-12.195,-19.268,-5.976
0.001,0.429,0.923,-12.805,-20.122,-3.415
0.118,0.396,0.938,-11.159,-16.829,-1.951
0.146,0.381,0.9,-9.39,-12.988,-1.098
0.007,0.414,0.8,-7.622,-8.841,1.646
-0.21,0.494,0.676,-6.28,-4.939,2.866
-0.382,0.586,0.633,-4.39,-1.707,3.537
-0.408,0.627,0.662,-1.646,2.012,3.476
-0.33,0.596,0.697,0.61,8.049,4.634
-0.298,0.539,0.727,4.207,20.915,6.951
-0.34,0.505,0.748,10.183,45.427,7.927
-0.397,0.505,0.762,18.293,77.134,9.939
-0.459,0.538,0.756,25.732,103.293,11.463
-0.502,0.573,0.745,28.963,112.012,11.28
-0.509,0.587,0.734,28.11,103.293,10.488
-0.479,0.583,0.734,23.537,90.0,8.841
-0.421,0.563,0.732,17.5,82.805,4.756
-0.396,0.561,0.729,12.927,82.317,2.378
-0.41,0.567,0.719,11.341,81.524,3.11
-0.431,0.566,0.726,12.195,76.951,4.634
-0.435,0.562,0.73,12.988,68.72,4.817
-0.467,0.548,0.725,12.195,57.744,5.305
-0.502,0.547,0.726,9.512,44.39,5.366
-0.534,0.561,0.729,6.22,30.488,5.549
-0.576,0.57,0.717,4.39,21.159,4.451
-0.603,0.578,0.701,3.598,16.159,3.171
-0.575,0.578,0.693,1.768,12.378,2.561
-0.484,0.552,0.698,-0.427,6.646,1.28
-0.385,0.522,0.728,-2.805,-0.793,-0.915
-0.267,0.501,0.755,-5.549,-9.512,-3.232
-0.138,0.478,0.79,-7.622,-21.585,-4.329
-0.025,0.451,0.824,-10.061,-39.329,-5.183
0.061,0.419,0.871,-14.207,-63.72,-7.5
0.117,0.4,0.902,-20.061,-96.646,-10.183
0.14,0.392,0.938,-27.439,-134.268,-12.134
0.167,0.387,0.982,-34.817,-168.841,-13.963
0.267,0.368,1.03,-40.549,-194.817,-15.732
0.375,0.34,1.069,-43.963,-209.817,-16.768
0.434,0.328,1.089,-44.939,-212.012,-16.89
0.468,0.319,1.027,-43.537,-199.878,-15.366
0.379,0.327,0.909,-39.329,-176.28,-12.988
0.158,0.38,0.766,-33.293,-146.463,-9.939
-0.071,0.458,0.657,-26.646,-115.61,-6.951
-0.233,0.516,0.624,-19.512,-84.39,-4.329
-0.304,0.54,0.631,-11.22,-47.683,-1.463
-0.322,0.54,0.642,-0.732,-1.098,2.134
-0.398,0.536,0.634,12.012,55.305,5.671
-0.54,0.549,0.614,25.671,117.439,7.927
-0.65,0.59,0.631,37.561,172.561,10.427
-0.646,0.624,0.674,46.28,209.756,13.537
-0.583,0.609,0.695,50.244,223.415,16.037
-0.521,0.584,0.673,48.537,218.171,15.976
-0.512,0.574,0.648,44.451,207.073,14.451
-0.525,0.594,0.622,39.512,197.134,9.878
-0.54,0.613,0.614,33.72,185.671,7.073
-0.516,0.608,0.638,29.817,168.232,6.037
-0.482,0.583,0.653,27.073,140.0,4.817
-0.485,0.558,0.662,22.866,107.439,4.39
-0.527,0.562,0.654,17.866,81.341,3.902
-0.629,0.584,0.622,13.963,62.5,3.963
-0.738,0.626,0.597,10.732,47.134,4.146
-0.736,0.65,0.617,7.622,28.963,3.232
-0.59,0.618,0.677,2.439,8.537,1.098
-0.369,0.536,0.74,-3.171,-9.39,-0.366
-0.153,0.452,0.806,-8.659,-23.354,-2.012
0.003,0.399,0.871,-12.256,-35.183,-3.11
0.119,0.383,0.923,-14.817,-49.695,-3.659
0.19,0.385,0.959,-19.024,-72.439,-5.366
0.234,0.382,0.968,-25.427,-109.573,-7.073
0.219,0.387,0.954,-34.939,-160.0,-9.146
0.152,0.399,0.913,-46.402,-210.488,-11.402
0.057,0.414,0.893,-54.817,-244.573,-13.598
-0.005,0.438,0.895,-56.463,-253.598,-13.78
-0.003,0.434,0.917,-51.646,-238.537,-12.073
0.033,0.415,0.96,-42.561,-206.037,-10.793
0.143,0.398,0.989,-32.744,-163.78,-9.817
0.234,0.371,0.986,-24.146,-117.805,-7.317
0.229,0.35,0.933,-16.707,-73.78,-3.598
0.083,0.374,0.812,-11.037,-37.927,-1.098
-0.13,0.437,0.704,-7.012,-14.756,0.671
-0.251,0.511,0.657,-4.451,-2.866,3.049
-0.28,0.547,0.662,-2.866,5.976,4.207
-0.305,0.543,0.677,0.366,19.329,4.39
-0.399,0.544,0.676,7.073,43.72,4.939
-0.487,0.557,0.686,14.817,79.878,6.585
-0.509,0.572,0.729,24.146,122.683,9.573
-0.479,0.557,0.784,31.951,154.939,11.585
-0.415,0.529,0.806,35.488,164.085,13.232
-0.384,0.516,0.79,34.39,152.073,14.39
-0.382,0.523,0.787,30.183,137.378,12.5
-0.374,0.541,0.765,25.732,129.756,9.451
-0.383,0.551,0.723,21.524,122.805,6.524
-0.404,0.564,0.708,18.049,109.024,5.366
-0.435,0.572,0.701,14.146,88.415,5.183
-0.457,0.561,0.723,10.305,67.195,4.024
-0.466,0.546,0.728,8.171,52.561,3.476
-0.498,0.544,0.734,7.744,44.878,4.329
-0.543,0.565,0.753,8.659,40.0,5.0
-0.558,0.576,0.731,9.024,34.939,4.024
-0.554,0.564,0.699,7.683,30.915,2.5
-0.489,0.554,0.733,6.037,25.793,1.646
-0.275,0.517,0.841,2.683,15.793,0.061
-0.014,0.443,0.928,-1.098,2.744,-1.22
0.152,0.38,0.989,-3.415,-8.354,-2.317
0.164,0.375,0.99,-4.146,-18.659,-4.695
0.036,0.427,0.914,-5.122,-36.402,-6.098
-0.146,0.491,0.825,-9.695,-63.841,-7.744
-0.233,0.526,0.794,-16.463,-96.707,-10.122
-0.216,0.495,0.811,-22.927,-129.512,-10.854
-0.175,0.437,0.871,-27.195,-148.659,-10.732
-0.135,0.413,0.895,-26.829,-138.841,-10.671
-0.08,0.407,0.914,-19.512,-98.415,-9.878
0.018,0.405,0.948,-7.439,-44.512,-7.866
0.029,0.406,0.885,2.378,1.159,-6.707
-0.059,0.413,0.746,5.122,23.415,-5.61
-0.21,0.471,0.636,0.854,22.561,-2.195
-0.319,0.546,0.619,-6.098,11.402,3.049
-0.323,0.574,0.659,-9.39,4.146,6.585
-0.29,0.539,0.692,-7.439,6.707,6.89
-0.321,0.499,0.688,-2.012,18.476,5.732
-0.384,0.506,0.688,4.878,36.402,7.134
-0.45,0.527,0.69,9.085,55.732,9.024
-0.509,0.549,0.69,12.5,73.537,9.512
-0.523,0.563,0.686,16.22,80.122,9.024
-0.529,0.573,0.686,17.866,76.22,7.317
-0.512,0.581,0.703,16.463,70.793,3.354
-0.493,0.568,0.716,12.805,71.463,-2.195
-0.473,0.562,0.722,11.646,76.768,-3.72
-0.473,0.556,0.728,13.354,80.366,-0.854
-0.479,0.561,0.747,13.354,75.915,0.061
-0.455,0.559,0.75,11.402,63.476,0.366
-0.477,0.548,0.726,9.085,47.378,1.037
-0.5,0.554,0.736,6.585,31.707,2.683
-0.43,0.555,0.785,3.537,16.037,3.963
-0.329,0.521,0.812,-0.061,1.463,2.744
-0.292,0.484,0.814,-2.683,-10.366,2.866
-0.271,0.485,0.819,-5.061,-21.89,2.439
-0.232,0.494,0.825,-7.561,-35.976,2.622
-0.199,0.489,0.828,-10.427,-50.671,2.073
-0.178,0.481,0.839,-13.963,-64.207,0.549
-0.163,0.483,0.851,-15.976,-79.024,-0.305
-0.146,0.489,0.849,-17.073,-92.988,-1.098
-0.124,0.487,0.822,-17.927,-99.817,-3.537
-0.126,0.476,0.837,-17.561,-100.122,-6.037
-0.121,0.461,0.875,-15.671,-100.915,-6.951
-0.067,0.443,0.912,-15.183,-103.537,-7.622
0.021,0.427,0.97,-16.037,-103.78,-8.841
0.14,0.395,1.005,-16.22,-100.488,-9.146
0.198,0.375,0.98,-16.402,-95.854,-9.085
0.18,0.361,0.971,-17.317,-91.22,-9.695
0.203,0.358,0.947,-19.146,-87.012,-9.39
0.197,0.365,0.887,-20.915,-85.061,-6.89
0.071,0.387,0.788,-21.22,-83.354,-4.024
-0.128,0.455,0.718,-20.0,-77.378,-4.207
-0.246,0.521,0.675,-16.28,-62.561,-3.902
-0.328,0.549,0.658,-10.244,-34.512,-1.89
-0.37,0.553,0.668,-3.049,1.585,1.829
-0.402,0.557,0.679,4.512,37.927,4.817
-0.422,0.542,0.686,12.622,72.317,7.134
-0.452,0.523,0.718,19.024,102.195,7.378
-0.438,0.528,0.771,24.024,123.78,8.293
-0.386,0.53,0.804,27.012,130.976,9.695
-0.372,0.522,0.796,27.744,128.171,8.598
-0.412,0.539,0.768,24.939,120.854,5.976
-0.438,0.575,0.745,21.951,115.183,4.39
-0.449,0.587,0.712,18.963,107.683,4.573
-0.471,0.583,0.713,14.878,96.402,5.549
-0.439,0.575,0.723,12.012,80.671,4.634
-0.422,0.553,0.707,10.671,62.866,4.939
-0.45,0.551,0.703,10.122,50.427,5.305
-0.459,0.553,0.713,10.305,44.573,5.061
-0.42,0.528,0.758,10.549,38.354,5.122
-0.251,0.476,0.882,9.451,28.293,4.695
0.013,0.391,0.995,6.037,16.037,3.11
0.148,0.314,0.988,2.317,2.561,0.976
-0.023,0.332,0.874,-0.854,-10.0,-0.915
-0.25,0.428,0.78,-4.207,-20.061,-3.902
-0.312,0.503,0.743,-6.646,-32.439,-6.585
-0.263,0.489,0.723,-9.939,-52.134,-9.451
-0.253,0.455,0.697,-14.817,-75.122,-12.5
-0.305,0.45,0.688,-16.951,-87.195,-12.805
-0.35,0.456,0.714,-13.598,-70.061,-11.341
-0.326,0.448,0.747,-4.085,-22.195,-8.902
-0.273,0.43,0.775,7.012,26.037,-4.939
-0.273,0.418,0.782,14.268,45.671,-1.524
-0.295,0.422,0.794,14.024,38.659,-1.037
-0.287,0.437,0.796,9.878,28.963,-3.537
-0.263,0.448,0.773,7.5,25.122,-5.0
-0.242,0.434,0.743,6.646,20.915,-3.598
