acc_x_axis_g,acc_y_axis_g,acc_z_axis_g,gyr_x_axis_deg/s,gyr_y_axis_deg/s,gyr_z_axis_deg/s
0.5,0.494,0.356,46.585,76.646,43.963
0.503,0.499,0.327,27.744,89.634,38.659
0.483,0.487,0.352,12.195,95.854,35.793
0.438,0.452,0.405,0.427,89.695,33.293
0.399,0.409,0.471,-10.244,71.341,27.378
0.375,0.381,0.519,-20.854,45.549,17.683
0.354,0.38,0.566,-30.0,17.439,5.915
0.341,0.384,0.615,-36.098,-6.28,-6.463
0.354,0.376,0.688,-39.634,-20.854,-16.768
0.382,0.368,0.762,-39.939,-25.366,-24.329
0.41,0.373,0.833,-38.598,-20.488,-29.756
0.434,0.403,0.879,-35.427,-5.854,-33.171
0.447,0.458,0.92,-29.39,13.11,-35.061
0.481,0.523,0.931,-25.61,30.305,-37.805
0.533,0.578,0.872,-25.427,40.305,-40.366
0.519,0.616,0.856,-26.098,38.11,-39.451
0.411,0.61,0.847,-24.512,25.122,-35.305
0.316,0.584,0.833,-23.354,4.512,-30.0
0.316,0.579,0.802,-24.878,-13.902,-25.427
0.378,0.604,0.792,-25.732,-20.732,-22.256
0.468,0.64,0.825,-22.683,-17.256,-19.329
0.56,0.656,0.862,-18.232,-12.073,-15.488
0.619,0.668,0.887,-13.72,-14.878,-9.268
0.635,0.695,0.928,-7.073,-27.134,-1.341
0.604,0.722,0.953,-0.305,-46.159,4.451
0.586,0.738,0.909,3.11,-65.793,6.402
0.588,0.75,0.855,6.402,-78.78,8.78
0.576,0.739,0.841,14.39,-82.622,13.841
0.542,0.701,0.845,25.061,-77.683,19.695
0.507,0.667,0.827,34.146,-67.5,24.634
0.501,0.651,0.779,39.817,-55.427,29.268
0.503,0.638,0.712,44.085,-41.829,32.317
0.482,0.606,0.642,46.89,-28.232,34.085
0.444,0.558,0.565,47.134,-18.902,36.098
0.405,0.517,0.482,42.073,-14.329,37.134
0.381,0.486,0.398,33.902,-9.634,37.134
0.379,0.461,0.425,32.317,-2.805,36.037
0.384,0.414,0.438,28.293,4.39,32.744
0.418,0.402,0.376,19.39,8.476,26.89
0.462,0.421,0.358,8.537,13.598,18.537
0.456,0.435,0.337,0.976,21.098,10.061
0.403,0.419,0.348,-5.732,27.683,3.78
0.356,0.401,0.339,-13.841,31.28,-0.732
0.329,0.398,0.361,-21.402,35.183,-5.549
0.305,0.393,0.412,-26.098,41.524,-8.049
0.297,0.375,0.484,-28.171,47.439,-7.561
0.323,0.373,0.574,-29.695,51.402,-7.744
0.358,0.396,0.648,-30.671,50.976,-11.829
0.387,0.423,0.721,-28.963,49.939,-17.927
0.394,0.428,0.803,-25.732,46.037,-23.11
0.392,0.405,0.843,-22.012,38.415,-28.171
0.393,0.386,0.862,-18.841,29.878,-33.476
0.395,0.391,0.872,-16.037,23.902,-38.78
0.41,0.417,0.883,-12.988,22.805,-43.902
0.438,0.453,0.905,-10.854,24.024,-48.049
0.463,0.488,0.923,-9.207,23.902,-50.305
0.449,0.521,0.92,-8.415,18.963,-51.524
0.421,0.551,0.919,-8.171,8.659,-51.951
0.383,0.575,0.928,-7.927,-3.598,-51.463
0.361,0.583,0.895,-11.463,-14.634,-50.976
0.395,0.589,0.83,-17.561,-21.402,-49.451
0.438,0.602,0.81,-21.524,-21.402,-45.732
0.439,0.598,0.82,-23.049,-18.049,-40.61
0.442,0.602,0.863,-22.927,-15.244,-36.646
0.456,0.611,0.887,-23.232,-14.634,-33.232
0.479,0.628,0.896,-23.232,-18.537,-28.902
0.504,0.645,0.927,-19.634,-24.878,-25.061
0.506,0.643,0.95,-14.024,-34.817,-22.073
0.508,0.643,0.951,-8.902,-47.378,-19.817
0.513,0.665,0.933,-5.122,-60.366,-17.317
0.515,0.681,0.874,-2.195,-69.207,-13.598
0.526,0.688,0.826,2.683,-71.951,-8.537
0.536,0.69,0.819,9.39,-70.0,-3.537
0.531,0.696,0.82,16.341,-66.28,1.646
0.503,0.701,0.797,23.11,-62.317,7.5
0.457,0.695,0.762,30.183,-57.134,13.049
0.404,0.677,0.709,36.28,-51.22,19.39
0.386,0.655,0.641,39.573,-43.11,25.122
0.406,0.636,0.575,41.402,-30.244,27.744
0.429,0.618,0.524,41.768,-14.512,27.805
0.434,0.583,0.467,38.72,1.707,26.585
0.429,0.545,0.416,33.232,16.585,25.549
0.417,0.492,0.407,31.402,32.073,25.488
0.396,0.436,0.465,33.476,49.573,25.244
0.377,0.392,0.438,27.439,63.537,23.232
0.407,0.416,0.356,15.854,70.976,20.366
0.413,0.458,0.329,6.037,75.793,17.744
0.352,0.471,0.342,-2.927,79.146,16.037
0.284,0.461,0.36,-10.915,80.183,16.22
0.253,0.452,0.406,-17.073,80.915,16.585
0.252,0.445,0.476,-21.646,84.39,15.061
0.276,0.441,0.541,-24.817,89.878,12.073
0.307,0.428,0.614,-26.22,94.39,9.085
0.328,0.415,0.692,-27.561,96.159,6.037
0.321,0.403,0.745,-28.537,92.744,2.439
0.297,0.4,0.792,-28.72,84.878,-2.317
0.29,0.411,0.839,-27.5,78.476,-8.659
0.333,0.435,0.92,-23.841,75.0,-16.28
0.412,0.457,1.008,-18.415,71.098,-24.39
0.468,0.476,1.077,-12.195,60.854,-31.768
0.476,0.505,1.105,-8.293,41.768,-37.622
0.437,0.544,1.079,-6.829,16.524,-41.28
0.388,0.582,1.013,-10.427,-9.085,-43.963
0.373,0.623,0.955,-13.11,-28.78,-45.366
0.354,0.653,0.932,-13.72,-39.268,-44.878
0.352,0.677,0.907,-14.817,-41.037,-41.585
0.368,0.699,0.879,-15.854,-36.402,-35.427
0.39,0.722,0.873,-16.524,-29.634,-28.537
0.404,0.732,0.859,-17.012,-23.963,-22.256
0.395,0.727,0.837,-18.598,-23.049,-16.159
0.373,0.713,0.827,-18.963,-27.622,-9.268
0.34,0.684,0.838,-15.427,-35.305,-2.988
0.315,0.643,0.859,-8.963,-42.683,1.646
0.329,0.626,0.871,-2.988,-47.317,4.939
0.377,0.629,0.854,2.439,-45.671,6.89
0.424,0.625,0.828,8.476,-38.049,7.378
0.455,0.608,0.805,14.39,-27.927,7.378
0.461,0.58,0.785,19.695,-19.695,7.622
0.426,0.551,0.749,23.354,-16.341,8.963
0.357,0.529,0.704,25.549,-17.622,11.402
0.282,0.516,0.655,26.22,-19.939,12.927
0.24,0.511,0.595,24.451,-17.744,12.744
0.253,0.509,0.542,20.61,-6.646,12.622
0.288,0.507,0.529,22.561,13.902,14.024
0.31,0.497,0.516,18.78,39.695,14.268
0.344,0.522,0.389,7.073,61.951,12.805
0.391,0.583,0.344,-6.463,77.378,9.878
0.375,0.591,0.329,-16.037,86.28,5.854
0.317,0.537,0.358,-21.951,87.5,1.341
0.242,0.465,0.408,-22.012,83.78,-2.439
0.171,0.408,0.484,-22.561,79.939,-4.146
0.142,0.39,0.521,-26.22,76.829,-2.073
0.16,0.418,0.583,-30.671,75.122,0.427
0.209,0.453,0.654,-32.805,74.756,-0.305
0.245,0.475,0.766,-31.951,73.171,-4.939
0.242,0.467,0.863,-27.439,68.598,-10.183
0.225,0.434,0.957,-19.695,61.768,-15.061
0.219,0.405,1.016,-10.122,52.5,-20.793
0.224,0.408,1.067,0.061,43.841,-27.195
0.233,0.433,1.098,10.488,35.976,-33.415
0.225,0.462,1.102,18.598,26.89,-38.232
0.191,0.49,1.074,23.841,16.159,-41.159
0.153,0.512,1.03,27.195,5.671,-42.195
0.121,0.52,0.979,29.634,-1.585,-42.683
0.104,0.519,0.933,32.195,-3.659,-42.683
0.119,0.518,0.904,33.415,-1.646,-41.951
0.151,0.525,0.869,32.866,1.159,-40.854
0.161,0.535,0.825,31.524,0.183,-41.098
0.151,0.541,0.773,26.22,-7.195,-43.293
0.145,0.551,0.683,17.805,-15.244,-44.573
0.14,0.564,0.656,12.683,-17.988,-43.354
0.13,0.56,0.662,8.537,-13.232,-42.134
0.138,0.574,0.673,3.78,-2.866,-39.634
0.161,0.601,0.707,0.793,6.829,-35.183
0.18,0.613,0.764,0.915,10.915,-30.793
0.186,0.618,0.805,3.415,5.854,-26.768
0.184,0.639,0.855,6.098,-8.659,-22.927
0.183,0.673,0.891,10.0,-26.463,-18.049
0.183,0.708,0.929,14.573,-42.256,-12.988
0.208,0.739,0.955,19.634,-52.012,-7.927
0.246,0.77,0.968,24.268,-54.878,-2.988
0.281,0.784,0.948,27.378,-52.134,1.463
0.328,0.784,0.898,28.78,-44.512,5.61
0.374,0.773,0.869,31.89,-31.768,9.634
0.378,0.752,0.876,36.341,-19.878,13.72
0.339,0.725,0.859,40.488,-14.451,17.378
0.286,0.708,0.819,42.988,-16.89,21.037
0.241,0.693,0.763,43.659,-25.549,24.512
0.209,0.684,0.703,43.293,-32.561,27.683
0.199,0.667,0.666,42.927,-35.732,30.0
0.209,0.649,0.652,43.72,-35.061,31.28
0.228,0.637,0.64,43.963,-30.732,31.524
0.23,0.638,0.619,44.024,-25.0,32.561
0.211,0.643,0.618,44.207,-18.354,33.963
0.187,0.641,0.613,43.659,-10.793,34.756
0.186,0.625,0.604,42.927,-2.561,34.329
0.207,0.608,0.596,41.585,6.646,33.232
0.224,0.598,0.593,39.573,15.976,31.341
0.232,0.591,0.591,36.159,22.012,29.817
0.231,0.59,0.583,31.951,23.78,28.232
0.22,0.601,0.552,22.744,24.512,25.366
0.246,0.617,0.505,12.012,27.256,21.159
0.297,0.616,0.523,4.085,37.134,16.585
0.304,0.586,0.555,-2.256,50.671,13.598
0.286,0.558,0.576,-8.293,61.037,11.159
0.289,0.555,0.59,-16.037,66.037,7.866
0.278,0.573,0.607,-22.866,67.073,3.78
0.221,0.586,0.639,-26.707,63.598,-0.488
0.165,0.572,0.655,-30.671,55.671,-3.902
0.138,0.563,0.665,-36.707,45.061,-6.524
0.136,0.575,0.687,-41.89,37.622,-10.061
0.155,0.582,0.725,-43.963,34.146,-14.573
0.174,0.575,0.776,-46.22,30.122,-19.085
0.178,0.572,0.817,-47.195,24.207,-23.293
0.184,0.575,0.868,-45.915,16.28,-27.256
0.19,0.577,0.916,-42.561,8.598,-30.671
0.182,0.593,0.975,-37.622,-0.732,-32.683
0.167,0.612,1.01,-32.622,-15.061,-34.268
0.157,0.637,1.019,-29.085,-33.963,-35.671
0.15,0.653,0.996,-26.402,-51.951,-36.402
0.153,0.657,0.977,-23.72,-64.756,-36.768
0.174,0.661,0.952,-21.037,-68.902,-36.341
0.21,0.664,0.907,-20.305,-64.939,-35.244
0.269,0.681,0.843,-23.049,-55.122,-33.78
0.312,0.714,0.798,-26.159,-42.927,-31.28
0.305,0.72,0.77,-26.707,-34.878,-27.988
0.288,0.694,0.757,-26.22,-35.549,-25.732
0.264,0.668,0.75,-25.061,-45.366,-24.512
0.236,0.649,0.751,-22.744,-61.037,-24.39
0.222,0.639,0.761,-19.329,-76.524,-24.756
0.224,0.638,0.771,-14.695,-85.366,-24.268
0.246,0.637,0.771,-10.244,-86.768,-22.683
0.285,0.641,0.781,-5.671,-81.159,-20.183
0.323,0.651,0.772,-0.732,-68.841,-15.671
0.337,0.668,0.753,3.598,-54.512,-8.659
0.328,0.694,0.729,6.402,-40.305,-0.061
0.286,0.72,0.715,8.963,-28.902,8.902
0.245,0.728,0.706,12.317,-23.11,16.89
0.221,0.709,0.699,16.28,-21.829,23.78
0.211,0.685,0.691,19.878,-23.659,29.878
0.207,0.666,0.68,23.293,-26.159,34.268
0.22,0.657,0.664,26.28,-26.098,37.5
0.25,0.648,0.65,28.11,-21.463,40.427
0.292,0.645,0.647,28.537,-11.159,43.049
0.337,0.637,0.638,30.183,0.793,43.659
0.381,0.624,0.633,32.134,14.634,43.171
0.391,0.605,0.634,33.476,26.707,43.841
0.363,0.59,0.618,31.28,34.451,45.0
0.306,0.59,0.561,24.39,38.841,47.378
0.247,0.59,0.501,17.195,40.915,49.451
0.223,0.573,0.481,13.171,45.305,49.695
0.231,0.543,0.488,10.0,54.146,48.11
0.25,0.514,0.474,4.512,64.329,45.183
0.27,0.512,0.484,-2.378,72.927,42.439
0.267,0.519,0.516,-5.671,75.61,39.207
0.243,0.512,0.539,-7.5,75.061,32.866
0.226,0.503,0.551,-10.427,73.11,24.634
0.225,0.507,0.576,-12.378,73.78,18.598
0.213,0.5,0.633,-10.732,78.171,14.024
0.221,0.481,0.71,-7.927,81.585,8.78
0.256,0.472,0.787,-6.037,78.293,2.622
0.266,0.471,0.824,-5.061,67.561,-3.354
0.239,0.479,0.836,-5.61,49.878,-8.293
0.202,0.497,0.84,-5.915,30.671,-13.354
0.2,0.525,0.856,-6.524,15.854,-18.171
0.211,0.56,0.869,-7.073,7.073,-21.768
0.247,0.577,0.894,-6.098,1.951,-24.817
0.288,0.583,0.918,-5.244,-4.207,-27.073
0.293,0.599,0.928,-4.634,-13.171,-28.72
0.268,0.625,0.925,-3.659,-24.878,-29.878
0.256,0.636,0.895,-2.927,-33.902,-31.28
0.271,0.639,0.87,-2.317,-35.549,-32.744
0.291,0.648,0.844,-1.159,-30.427,-32.256
0.314,0.652,0.828,-0.305,-23.415,-30.427
0.322,0.646,0.805,0.366,-18.049,-28.049
0.286,0.647,0.781,-0.305,-18.11,-24.756
0.247,0.656,0.76,-2.317,-22.561,-20.732
0.243,0.67,0.75,-4.39,-28.232,-18.11
0.271,0.664,0.759,-6.159,-34.085,-17.317
0.284,0.652,0.765,-7.5,-40.549,-15.854
0.272,0.642,0.784,-8.537,-47.378,-12.805
0.277,0.635,0.797,-9.085,-51.159,-9.939
0.304,0.637,0.818,-7.561,-50.122,-7.744
0.349,0.647,0.841,-4.878,-47.988,-4.695
0.402,0.66,0.857,-1.646,-45.732,-2.378
0.42,0.678,0.872,0.793,-43.659,-0.061
0.377,0.688,0.865,3.902,-42.927,4.512
0.317,0.681,0.868,7.622,-41.89,11.037
0.279,0.665,0.849,11.098,-39.085,17.439
0.259,0.659,0.838,14.39,-33.902,22.256
0.256,0.658,0.819,16.646,-27.927,26.768
0.266,0.652,0.79,18.293,-22.256,31.159
0.287,0.64,0.754,19.939,-15.549,33.354
0.313,0.625,0.728,20.366,-7.988,33.72
0.327,0.612,0.684,19.512,0.549,33.476
0.329,0.602,0.653,17.927,8.72,32.988
0.312,0.583,0.626,14.512,15.061,33.415
0.272,0.571,0.591,9.085,18.78,34.39
0.241,0.554,0.546,2.012,22.805,34.939
0.226,0.547,0.536,-3.537,27.5,35.0
0.225,0.532,0.521,-8.598,36.402,33.72
0.276,0.514,0.512,-12.622,49.39,29.146
0.36,0.494,0.534,-16.463,64.634,21.89
0.37,0.483,0.563,-18.476,77.317,16.829
0.312,0.475,0.606,-18.902,77.866,15.244
0.242,0.46,0.617,-20.0,67.195,13.598
0.199,0.466,0.613,-22.073,51.037,9.756
0.172,0.489,0.618,-24.512,36.159,4.207
0.159,0.506,0.642,-23.78,27.256,-1.707
0.176,0.497,0.688,-21.159,24.695,-7.012
0.212,0.481,0.731,-17.5,27.378,-11.524
0.258,0.478,0.774,-13.049,33.902,-15.854
0.301,0.479,0.803,-8.963,38.598,-20.183
0.324,0.493,0.813,-7.195,36.768,-24.39
0.302,0.518,0.801,-7.378,28.415,-27.805
0.259,0.547,0.796,-7.866,16.524,-30.61
0.228,0.567,0.802,-7.5,7.012,-32.622
0.221,0.578,0.813,-6.707,1.463,-33.598
0.249,0.589,0.815,-6.951,-0.305,-34.085
0.291,0.604,0.815,-7.622,0.549,-35.0
0.308,0.617,0.819,-7.683,1.707,-35.366
0.287,0.618,0.817,-7.5,-1.22,-34.878
0.253,0.608,0.803,-7.317,-8.293,-32.988
0.223,0.6,0.782,-8.963,-16.89,-31.159
0.224,0.605,0.769,-11.159,-21.768,-30.0
0.233,0.617,0.793,-10.549,-19.39,-28.293
0.234,0.615,0.828,-8.537,-15.305,-25.427
0.244,0.61,0.837,-7.683,-14.756,-21.829
0.259,0.615,0.849,-7.073,-19.512,-18.476
0.244,0.619,0.863,-5.854,-29.878,-15.854
0.213,0.615,0.865,-3.659,-41.402,-14.024
0.216,0.612,0.867,-1.829,-50.854,-13.171
0.242,0.616,0.868,0.488,-54.512,-12.683
0.287,0.612,0.876,4.39,-51.463,-12.378
0.332,0.605,0.881,8.11,-45.244,-11.829
0.357,0.603,0.867,9.939,-39.939,-9.573
0.35,0.607,0.845,10.671,-38.902,-6.402
0.329,0.616,0.818,10.854,-43.049,-3.11
0.303,0.622,0.802,10.61,-51.28,-0.122
0.29,0.629,0.787,10.976,-57.805,2.683
0.291,0.635,0.775,12.622,-57.195,5.183
0.306,0.64,0.774,14.878,-51.098,8.232
0.31,0.645,0.776,17.317,-42.134,11.89
0.313,0.643,0.768,19.451,-33.963,15.305
0.32,0.638,0.75,20.0,-27.683,17.988
0.316,0.637,0.728,20.244,-22.5,20.305
0.312,0.626,0.709,20.244,-19.512,22.622
0.311,0.608,0.688,19.756,-18.171,25.183
0.303,0.6,0.682,19.695,-15.122,27.744
0.298,0.588,0.681,19.207,-11.098,29.451
0.308,0.591,0.666,18.537,-6.646,29.695
0.323,0.59,0.654,16.402,-2.866,29.024
0.341,0.581,0.633,14.329,1.768,27.561
0.356,0.567,0.628,11.646,7.012,25.549
0.361,0.55,0.614,8.11,12.866,23.049
0.369,0.542,0.618,4.817,19.634,20.305
0.379,0.536,0.618,1.951,25.671,17.866
0.382,0.53,0.617,0.549,29.817,14.695
0.371,0.527,0.64,-1.037,32.927,10.854
0.35,0.529,0.646,-2.927,34.268,7.805
0.344,0.531,0.655,-4.146,34.573,4.695
0.335,0.534,0.67,-4.085,35.366,2.561
0.31,0.53,0.677,-2.988,34.512,1.28
0.298,0.527,0.688,-1.463,32.317,-1.463
0.271,0.529,0.705,0.061,28.171,-4.39
0.238,0.531,0.723,0.061,22.012,-5.793
0.222,0.532,0.718,0.366,13.841,-5.976
0.229,0.539,0.711,2.561,6.22,-8.049
0.256,0.539,0.728,5.061,1.829,-11.89
0.266,0.537,0.721,5.488,0.122,-14.39
0.259,0.552,0.712,4.085,-0.549,-14.878
0.26,0.571,0.702,2.988,0.793,-14.451
0.259,0.588,0.708,2.317,4.573,-13.659
0.265,0.6,0.713,1.341,8.232,-12.134
0.285,0.611,0.711,-0.244,10.671,-11.89
0.309,0.625,0.714,-0.427,15.427,-13.476
0.339,0.625,0.725,0.183,22.866,-15.732
0.365,0.615,0.742,0.976,29.695,-17.317
0.342,0.606,0.744,1.89,31.951,-17.012
0.301,0.607,0.761,3.537,26.707,-16.037
0.27,0.606,0.767,4.756,17.744,-16.159
0.238,0.608,0.754,6.159,9.085,-15.915
0.228,0.616,0.759,7.012,2.378,-14.817
0.234,0.631,0.774,8.415,-2.5,-14.146
0.25,0.64,0.779,10.915,-6.829,-14.512
0.268,0.627,0.768,14.207,-8.78,-15.61
0.28,0.613,0.759,17.378,-8.72,-15.976
0.289,0.609,0.734,18.78,-8.963,-15.305
0.304,0.621,0.71,17.317,-8.049,-15.0
0.324,0.639,0.689,15.366,-5.366,-14.329
0.319,0.645,0.688,14.817,-2.866,-14.329
0.309,0.634,0.677,12.866,-1.585,-15.427
0.31,0.627,0.667,12.073,-1.646,-15.122
0.287,0.618,0.682,13.415,-1.098,-14.39
0.268,0.621,0.706,14.207,-0.366,-14.573
0.272,0.625,0.702,13.354,-0.427,-15.122
0.286,0.635,0.705,12.256,0.061,-15.732
0.282,0.644,0.723,12.866,0.976,-15.793
0.266,0.637,0.74,14.573,0.427,-14.512
0.26,0.635,0.752,14.634,-2.134,-13.232
0.262,0.651,0.733,13.11,-5.549,-13.171
0.269,0.664,0.721,11.829,-6.22,-13.354
0.264,0.665,0.717,11.951,-4.756,-12.195
0.249,0.668,0.727,12.378,-2.378,-10.366
0.238,0.675,0.729,12.256,-0.488,-9.146
0.24,0.678,0.728,12.561,-0.854,-8.963
0.247,0.673,0.731,13.78,-1.89,-10.61
0.262,0.663,0.734,15.61,-4.512,-14.329
0.274,0.656,0.728,17.317,-7.5,-18.537
0.276,0.651,0.734,20.488,-9.756,-22.439
0.267,0.635,0.745,24.085,-12.317,-25.427
0.256,0.62,0.735,27.134,-14.634,-27.561
0.256,0.619,0.727,30.732,-13.841,-30.854
0.273,0.628,0.704,33.293,-8.476,-37.195
0.288,0.639,0.663,36.768,3.293,-44.634
0.311,0.646,0.64,42.866,22.927,-51.951
0.336,0.635,0.585,47.927,51.341,-60.305
0.354,0.626,0.537,52.378,83.049,-68.78
0.366,0.625,0.513,57.988,113.049,-76.28
0.359,0.617,0.458,64.512,137.866,-81.585
0.336,0.602,0.343,58.354,162.866,-83.598
0.325,0.614,0.262,60.488,178.78,-84.573
0.295,0.665,0.359,55.488,196.098,-83.293
0.293,0.665,0.167,44.939,234.756,-85.183
0.284,0.743,0.25,43.354,273.049,-90.915
0.267,0.817,0.353,55.549,316.89,-95.0
0.244,0.812,0.351,64.695,363.598,-97.866
0.198,0.806,0.346,65.061,399.268,-98.415
0.095,0.833,0.339,64.024,426.768,-96.463
-0.06,0.86,0.348,65.183,446.341,-92.988
-0.193,0.875,0.354,66.524,452.622,-88.415
-0.277,0.89,0.347,64.085,450.427,-81.098
-0.319,0.918,0.318,53.598,444.268,-71.463
-0.302,0.956,0.299,39.329,437.866,-61.829
-0.285,0.983,0.344,32.866,432.561,-54.878
-0.311,0.945,0.387,36.463,424.817,-53.232
-0.368,0.877,0.368,41.768,411.646,-55.915
-0.42,0.863,0.305,46.524,393.659,-59.329
-0.463,0.907,0.187,50.0,379.695,-59.146
-0.46,0.98,0.02,42.256,378.354,-54.939
-0.412,1.062,-0.146,21.951,388.049,-50.305
-0.378,1.13,-0.321,-12.439,400.854,-46.89
-0.429,1.138,-0.534,-50.61,409.085,-43.72
-0.572,1.103,-0.657,-78.415,405.366,-43.293
-0.716,1.028,-0.682,-96.098,388.415,-46.829
-0.844,0.977,-0.65,-111.159,365.305,-50.915
-0.967,0.956,-0.582,-122.134,330.305,-47.988
-1.071,0.93,-0.523,-135.488,284.756,-32.561
-1.162,0.887,-0.502,-138.537,243.293,-8.963
-1.245,0.845,-0.416,-127.988,204.634,10.915
-1.194,0.78,-0.323,-118.354,172.317,16.646
-1.051,0.736,-0.321,-115.854,153.293,12.439
-0.94,0.723,-0.32,-116.89,141.159,7.622
-0.887,0.713,-0.302,-114.329,131.707,7.622
-0.877,0.67,-0.272,-108.11,121.89,10.305
-0.886,0.638,-0.23,-100.732,106.159,12.683
-0.869,0.628,-0.201,-92.683,86.28,15.0
-0.853,0.622,-0.22,-81.341,68.537,17.5
-0.88,0.59,-0.197,-70.122,50.061,18.963
-0.89,0.563,-0.141,-58.963,31.098,18.963
-0.802,0.543,-0.098,-44.573,17.805,17.988
-0.702,0.507,-0.053,-31.037,10.061,15.305
-0.604,0.509,-0.022,-18.78,4.268,12.012
-0.562,0.533,-0.088,-13.293,-1.159,8.415
-0.576,0.63,-0.176,-15.183,-5.61,9.512
-0.616,0.755,-0.289,-24.024,-5.183,15.732
-0.638,0.854,-0.378,-37.439,-1.829,21.098
-0.619,0.91,-0.396,-44.512,0.61,22.256
-0.566,0.872,-0.351,-41.89,-0.793,19.573
-0.496,0.776,-0.296,-37.012,-0.976,15.732
-0.441,0.707,-0.259,-35.0,3.171,11.28
-0.418,0.688,-0.208,-30.671,7.927,7.744
-0.428,0.656,-0.168,-25.976,11.28,4.817
-0.44,0.621,-0.176,-22.256,12.988,-0.366
