acc_x_axis_g,acc_y_axis_g,acc_z_axis_g,gyr_x_axis_deg/s,gyr_y_axis_deg/s,gyr_z_axis_deg/s
-0.124,0.51,0.758,-44.268,10.0,4.024
-0.129,0.528,0.729,-42.012,4.024,1.585
-0.121,0.534,0.705,-40.549,-0.854,2.988
-0.16,0.507,0.695,-36.89,-7.683,3.963
-0.16,0.496,0.744,-34.085,-11.28,3.354
-0.146,0.455,0.806,-30.549,-13.598,3.476
-0.159,0.444,0.824,-27.744,-21.646,3.171
-0.184,0.459,0.79,-26.22,-36.707,3.11
-0.202,0.48,0.75,-27.012,-56.341,2.439
-0.208,0.483,0.698,-29.329,-81.28,3.293
-0.228,0.462,0.687,-29.695,-110.61,4.695
-0.272,0.458,0.714,-30.61,-144.329,3.72
-0.256,0.491,0.728,-34.451,-177.256,1.28
-0.161,0.5,0.716,-40.366,-203.537,-1.402
-0.046,0.499,0.705,-47.256,-221.768,-1.585
0.008,0.504,0.668,-52.378,-236.524,1.768
0.016,0.523,0.67,-55.793,-251.22,5.671
0.023,0.528,0.701,-60.488,-268.842,6.524
0.058,0.499,0.725,-64.39,-286.829,4.085
0.139,0.459,0.73,-68.598,-305.244,-1.768
0.221,0.427,0.714,-70.122,-322.012,-11.829
0.288,0.422,0.701,-68.841,-333.659,-18.537
0.369,0.437,0.665,-69.085,-337.988,-23.232
0.47,0.431,0.625,-68.537,-337.317,-27.073
0.535,0.414,0.629,-67.622,-334.634,-28.11
0.567,0.397,0.648,-68.171,-331.281,-26.524
0.606,0.39,0.684,-70.976,-325.244,-24.024
0.721,0.396,0.722,-74.207,-310.0,-20.183
0.85,0.402,0.738,-75.915,-284.817,-20.244
0.87,0.4,0.728,-69.756,-252.134,-26.037
0.827,0.396,0.683,-63.963,-215.671,-27.988
0.831,0.42,0.656,-67.805,-178.049,-21.098
0.808,0.44,0.676,-72.195,-142.378,-12.256
0.713,0.43,0.668,-70.732,-116.159,-9.878
0.554,0.435,0.643,-69.207,-99.451,-7.378
0.434,0.446,0.62,-66.098,-88.232,0.732
0.453,0.426,0.588,-61.037,-75.732,11.951
0.482,0.399,0.576,-55.549,-59.268,23.293
0.549,0.412,0.545,-52.439,-39.634,30.671
0.609,0.407,0.524,-51.402,-19.024,33.72
0.659,0.392,0.494,-51.159,0.854,34.573
0.746,0.366,0.494,-50.793,18.049,32.622
0.782,0.328,0.535,-50.61,25.305,28.902
0.778,0.295,0.58,-49.939,21.341,23.598
0.793,0.26,0.632,-47.439,12.317,18.049
0.824,0.245,0.692,-45.122,-1.707,11.951
0.83,0.241,0.727,-42.561,-19.695,3.963
0.832,0.238,0.744,-39.268,-35.915,-3.415
0.852,0.238,0.759,-35.0,-45.915,-10.366
0.888,0.246,0.771,-30.671,-52.073,-17.073
0.893,0.248,0.771,-26.768,-58.11,-23.171
0.867,0.258,0.759,-21.585,-63.598,-28.72
0.861,0.277,0.735,-16.159,-67.927,-32.988
0.858,0.287,0.703,-9.817,-71.524,-36.159
0.865,0.293,0.652,-2.805,-74.024,-38.902
0.853,0.314,0.588,2.134,-76.037,-40.732
0.824,0.342,0.519,5.244,-76.098,-42.134
0.795,0.359,0.447,7.439,-72.378,-43.049
0.764,0.372,0.381,7.561,-66.22,-42.317
0.682,0.385,0.348,4.085,-57.317,-39.512
0.565,0.385,0.314,1.524,-43.659,-33.78
0.48,0.411,0.295,-1.524,-28.78,-25.427
0.36,0.43,0.29,-5.366,-17.073,-14.634
0.282,0.437,0.281,-9.695,-7.866,-1.159
0.235,0.426,0.297,-12.805,1.585,12.927
0.255,0.407,0.311,-15.183,14.268,26.037
0.334,0.39,0.334,-16.646,29.024,37.622
0.418,0.356,0.359,-16.524,41.768,47.5
0.539,0.32,0.377,-14.817,53.232,54.512
0.699,0.3,0.405,-13.963,64.634,56.951
0.867,0.276,0.452,-15.488,72.988,54.085
0.976,0.256,0.523,-17.805,72.378,46.646
1.047,0.225,0.589,-17.805,61.951,36.585
1.116,0.205,0.661,-17.378,43.476,24.756
1.149,0.199,0.72,-16.402,20.366,12.683
1.159,0.196,0.76,-14.39,-1.707,0.854
1.154,0.206,0.798,-11.524,-19.878,-10.305
1.105,0.212,0.799,-7.5,-35.427,-20.305
1.034,0.228,0.794,-2.622,-48.537,-28.415
0.974,0.242,0.775,3.171,-57.561,-34.817
0.918,0.264,0.728,8.72,-62.866,-39.207
0.873,0.289,0.672,13.171,-65.183,-41.768
0.836,0.314,0.609,15.915,-66.341,-42.439
0.784,0.339,0.534,17.378,-66.585,-41.28
0.725,0.362,0.472,16.768,-64.329,-38.72
0.655,0.374,0.422,15.244,-59.268,-35.061
0.592,0.387,0.374,12.622,-51.22,-29.329
0.528,0.405,0.334,8.841,-40.976,-21.524
0.456,0.412,0.295,4.39,-28.11,-11.463
0.393,0.407,0.262,-1.159,-12.866,0.244
0.363,0.4,0.24,-6.341,3.72,11.89
0.355,0.374,0.236,-11.22,21.341,23.415
0.387,0.352,0.257,-15.915,39.329,32.378
0.419,0.335,0.295,-19.939,54.451,38.841
0.48,0.298,0.341,-22.927,66.89,45.122
0.584,0.28,0.395,-25.793,76.341,49.451
0.682,0.256,0.444,-27.805,79.695,51.098
0.816,0.234,0.5,-29.268,75.793,49.207
0.916,0.216,0.553,-29.329,64.756,43.476
1.01,0.188,0.606,-27.073,51.159,34.085
1.128,0.191,0.673,-25.671,38.11,21.768
1.201,0.189,0.724,-23.476,23.049,8.476
1.212,0.186,0.768,-19.695,4.878,-4.634
1.173,0.192,0.804,-13.293,-12.5,-16.89
1.117,0.207,0.809,-6.463,-26.22,-27.317
1.061,0.227,0.791,0.061,-36.768,-35.427
0.988,0.241,0.762,6.463,-44.146,-41.585
0.923,0.27,0.706,11.524,-47.561,-45.61
0.866,0.295,0.635,15.671,-49.024,-46.585
0.785,0.318,0.567,18.598,-49.878,-44.939
0.705,0.337,0.503,19.634,-49.39,-41.707
0.63,0.355,0.443,19.024,-47.378,-36.768
0.568,0.375,0.394,17.012,-42.134,-30.122
0.514,0.393,0.348,13.415,-33.841,-21.89
0.45,0.404,0.306,9.085,-22.256,-12.195
0.418,0.409,0.262,4.024,-7.439,-1.463
0.386,0.41,0.235,-1.768,7.927,8.902
0.378,0.39,0.22,-7.256,22.439,18.72
0.404,0.367,0.231,-12.927,37.073,27.256
0.43,0.34,0.268,-17.805,50.061,34.573
0.486,0.304,0.318,-21.28,60.061,41.22
0.562,0.287,0.386,-23.902,66.341,45.488
0.618,0.252,0.446,-25.061,67.988,47.744
0.715,0.228,0.5,-25.305,64.634,47.622
0.837,0.211,0.565,-24.512,58.293,44.695
0.944,0.194,0.619,-23.415,50.488,38.537
1.022,0.19,0.655,-22.012,42.378,29.207
1.108,0.186,0.694,-19.939,33.841,17.683
1.148,0.18,0.728,-16.707,21.646,5.549
1.143,0.186,0.751,-12.439,6.463,-5.671
1.109,0.2,0.772,-7.683,-9.085,-15.427
1.054,0.212,0.773,-2.805,-23.232,-23.11
1.012,0.229,0.761,1.463,-34.512,-29.207
0.968,0.244,0.732,5.183,-42.256,-33.902
0.919,0.257,0.697,8.415,-47.134,-37.134
0.887,0.271,0.655,11.159,-50.244,-38.902
0.852,0.275,0.604,13.537,-52.439,-39.39
0.807,0.288,0.555,14.756,-53.72,-38.902
0.764,0.308,0.516,15.122,-53.841,-37.378
0.717,0.316,0.482,14.817,-52.805,-34.939
0.655,0.323,0.446,13.841,-49.878,-31.585
0.606,0.332,0.422,12.5,-43.902,-27.317
0.56,0.343,0.396,10.122,-34.756,-22.134
0.509,0.35,0.372,7.378,-22.805,-16.098
0.471,0.356,0.344,4.085,-7.744,-8.72
0.442,0.359,0.317,-0.427,7.866,-0.366
0.42,0.354,0.29,-4.817,22.256,7.622
0.416,0.348,0.285,-10.244,35.183,14.878
0.446,0.335,0.285,-16.463,47.378,21.829
0.472,0.323,0.313,-22.439,58.72,27.988
0.469,0.311,0.376,-27.256,67.622,32.988
0.488,0.291,0.438,-30.61,73.841,38.72
0.51,0.282,0.501,-31.402,77.073,45.0
0.558,0.258,0.557,-29.085,77.683,50.793
0.623,0.232,0.6,-25.549,77.744,54.39
0.694,0.215,0.626,-21.89,76.829,55.0
0.801,0.2,0.657,-17.927,74.146,52.378
0.89,0.199,0.69,-14.207,70.427,46.098
1.018,0.189,0.726,-11.768,66.037,36.402
1.116,0.181,0.776,-10.427,56.707,24.024
1.142,0.161,0.819,-6.951,40.366,11.463
1.138,0.159,0.847,-2.256,19.512,-0.305
1.115,0.164,0.867,2.683,-2.5,-11.22
1.085,0.173,0.865,7.622,-21.768,-21.159
1.042,0.184,0.846,12.622,-35.488,-29.207
1.004,0.195,0.811,16.768,-43.659,-35.793
0.946,0.208,0.756,20.61,-48.232,-41.524
0.894,0.224,0.694,23.537,-49.451,-45.671
0.862,0.248,0.642,24.756,-49.024,-47.805
0.816,0.268,0.595,24.817,-50.0,-47.5
0.737,0.286,0.546,24.573,-52.866,-44.878
0.659,0.305,0.5,22.927,-55.427,-40.854
0.579,0.324,0.464,20.366,-55.488,-35.793
0.499,0.34,0.438,16.829,-51.89,-29.329
0.428,0.349,0.415,13.415,-42.927,-21.463
0.395,0.363,0.385,9.512,-27.256,-12.622
0.372,0.37,0.351,4.573,-7.073,-2.805
0.348,0.367,0.323,-1.22,13.476,7.5
0.329,0.349,0.308,-6.585,32.866,17.5
0.347,0.337,0.306,-12.5,51.098,26.463
0.372,0.326,0.341,-18.537,67.073,34.146
0.416,0.295,0.387,-23.476,77.988,40.793
0.469,0.269,0.432,-26.829,84.024,46.707
0.542,0.245,0.486,-28.232,87.683,51.037
0.629,0.222,0.563,-28.171,88.598,52.561
0.72,0.2,0.65,-26.829,86.159,51.28
0.821,0.188,0.724,-24.634,80.427,46.951
0.899,0.171,0.769,-21.159,71.159,40.366
0.968,0.155,0.816,-17.073,60.183,31.707
1.02,0.15,0.862,-12.927,48.232,20.366
1.065,0.148,0.89,-7.805,33.354,8.11
1.067,0.146,0.913,-1.22,15.854,-3.171
1.054,0.157,0.921,5.549,-1.829,-13.659
1.022,0.168,0.902,11.829,-17.927,-22.5
0.985,0.172,0.872,17.683,-30.183,-29.756
0.957,0.189,0.833,22.012,-38.354,-35.915
0.915,0.209,0.792,25.0,-44.329,-40.915
0.872,0.222,0.744,27.439,-49.695,-44.146
0.813,0.247,0.684,29.085,-54.512,-45.244
0.747,0.274,0.624,29.39,-58.415,-44.573
0.675,0.295,0.567,27.744,-62.195,-42.317
0.591,0.312,0.521,24.634,-64.878,-38.78
0.517,0.324,0.478,20.244,-64.634,-33.841
0.445,0.336,0.448,16.341,-59.878,-27.561
0.403,0.349,0.419,12.622,-48.659,-19.939
0.372,0.362,0.388,8.78,-30.183,-11.646
0.358,0.36,0.35,4.695,-5.122,-2.683
0.353,0.358,0.333,-0.061,22.439,6.402
0.347,0.339,0.32,-3.963,47.805,14.695
0.37,0.325,0.318,-7.866,70.427,22.256
0.403,0.317,0.35,-12.805,89.695,28.659
0.446,0.299,0.398,-17.744,103.963,33.171
0.473,0.277,0.447,-21.159,113.354,36.28
0.532,0.256,0.5,-23.232,119.207,38.841
0.604,0.247,0.567,-26.098,119.085,40.305
0.62,0.245,0.643,-29.024,110.793,39.695
0.639,0.225,0.697,-29.573,97.256,38.72
0.7,0.216,0.756,-27.927,80.427,36.524
0.762,0.212,0.812,-24.512,62.195,33.293
0.829,0.206,0.876,-21.037,44.634,28.78
0.895,0.195,0.914,-16.463,29.878,22.317
0.956,0.188,0.936,-11.646,19.207,14.634
1.012,0.181,0.958,-6.524,9.939,5.305
1.015,0.174,0.974,0.183,-1.341,-4.939
0.974,0.169,0.979,7.317,-14.756,-14.695
0.929,0.175,0.974,13.415,-30.061,-22.683
0.889,0.188,0.966,18.537,-46.341,-28.963
0.855,0.199,0.934,23.11,-60.061,-34.268
0.826,0.206,0.888,26.951,-69.268,-38.78
0.797,0.215,0.833,30.061,-75.366,-42.5
0.752,0.227,0.772,31.707,-79.268,-45.244
0.692,0.246,0.716,32.195,-80.915,-46.585
0.622,0.262,0.66,32.134,-79.939,-46.037
0.548,0.286,0.599,30.366,-76.341,-43.232
0.46,0.312,0.557,27.744,-69.939,-38.293
0.385,0.334,0.512,24.329,-60.61,-31.341
0.338,0.357,0.474,20.0,-46.707,-22.134
0.303,0.366,0.44,15.732,-27.073,-12.012
0.295,0.367,0.393,11.28,-3.841,-1.768
0.28,0.359,0.336,5.793,18.963,7.927
0.277,0.35,0.317,-0.915,38.598,16.768
0.262,0.333,0.349,-7.256,54.939,25.305
0.268,0.32,0.405,-11.829,68.841,34.146
0.331,0.297,0.461,-12.805,80.976,43.598
0.442,0.268,0.528,-10.061,90.976,50.366
0.6,0.245,0.591,-7.012,98.78,52.622
0.782,0.229,0.644,-6.341,101.22,49.878
0.899,0.219,0.703,-5.061,94.756,40.793
1.01,0.187,0.757,-2.805,84.268,26.768
1.118,0.18,0.826,-1.098,70.549,9.817
1.126,0.156,0.889,4.146,52.073,-7.012
1.07,0.146,0.922,11.28,30.732,-21.707
0.914,0.174,0.939,18.598,6.89,-33.354
