acc_x_axis_g,acc_y_axis_g,acc_z_axis_g,gyr_x_axis_deg/s,gyr_y_axis_deg/s,gyr_z_axis_deg/s
-0.806,0.513,-0.082,49.878,35.61,-0.549
-1.704,0.658,-0.484,2.378,-19.634,85.915
-1.255,0.801,-0.604,-35.549,26.098,137.744
0.11,0.688,-0.548,-63.049,125.854,173.11
0.924,0.525,-0.379,-91.28,178.963,185.732
1.276,0.335,0.067,-108.171,168.171,161.646
1.77,0.23,0.547,-103.841,133.232,116.951
2.501,0.167,0.839,-72.866,86.159,64.085
2.515,0.163,0.961,-15.366,-4.878,-15.854
1.988,0.226,1.004,24.207,-111.829,-105.366
2.038,0.171,0.971,47.439,-162.683,-158.78
1.797,0.206,0.793,63.841,-150.915,-186.829
1.228,0.231,0.76,77.378,-102.866,-207.866
0.946,0.286,0.734,92.866,-39.695,-203.902
0.196,0.17,0.364,90.427,-33.354,-139.634
-1.542,0.27,-0.028,60.366,-103.902,-67.378
-2.005,0.792,-0.264,26.098,-93.476,-5.793
-0.963,0.935,-0.458,-3.232,12.012,72.378
-0.125,0.918,-0.557,-38.11,136.768,150.915
0.349,0.826,-0.446,-71.646,238.598,189.512
0.696,0.628,-0.317,-101.89,286.829,199.207
1.02,0.448,0.034,-123.537,280.732,189.939
1.573,0.339,0.627,-120.305,228.598,162.317
2.298,0.173,1.092,-75.854,129.634,122.866
2.028,0.073,1.205,-11.037,-27.683,38.293
1.853,0.083,1.314,27.744,-168.11,-76.89
2.683,0.024,1.404,56.646,-225.427,-148.354
2.532,0.099,1.185,77.927,-218.72,-194.39
1.6,0.121,1.008,87.988,-182.012,-229.573
0.912,0.08,1.02,99.573,-106.463,-246.22
0.645,0.09,0.726,112.439,-32.439,-218.415
-0.832,-0.143,0.15,92.988,-79.878,-117.439
-2.628,0.332,-0.188,37.988,-133.963,-29.451
-2.282,0.935,-0.502,1.22,-26.707,39.085
-0.67,0.899,-0.67,-31.524,144.451,130.244
0.13,0.849,-0.617,-75.305,278.293,205.61
0.366,0.77,-0.536,-113.659,350.732,233.049
0.634,0.521,-0.333,-144.268,366.524,229.39
1.173,0.312,0.256,-158.537,334.756,206.524
2.136,0.211,0.987,-134.756,249.573,184.085
2.39,0.058,1.366,-65.427,72.073,122.073
1.702,0.128,1.521,-9.451,-123.963,-9.756
2.596,0.032,1.696,32.317,-243.293,-111.707
3.173,0.014,1.581,63.171,-275.61,-167.5
2.299,0.11,1.312,82.988,-265.305,-216.463
1.263,0.076,1.24,91.463,-216.159,-247.561
0.648,0.019,1.287,109.939,-111.402,-255.244
0.521,0.023,0.846,138.415,-22.744,-215.122
-1.226,-0.396,0.081,121.159,-103.963,-94.878
-3.132,0.352,-0.305,58.049,-165.427,-18.293
-2.183,1.05,-0.599,20.183,-13.659,30.122
-0.28,0.881,-0.843,-23.232,177.256,126.402
0.23,0.798,-0.855,-77.012,307.317,200.0
0.223,0.684,-0.693,-120.305,372.317,216.585
0.549,0.466,-0.255,-151.829,377.439,201.402
1.164,0.289,0.473,-162.866,319.695,178.537
2.068,0.204,1.24,-127.683,209.573,163.415
1.936,0.09,1.535,-47.256,19.146,110.183
0.975,0.25,1.653,11.951,-155.427,-1.585
2.179,0.145,1.665,52.866,-225.854,-80.976
2.919,0.155,1.489,87.439,-215.366,-129.512
2.249,0.264,1.25,111.707,-174.207,-174.146
1.437,0.219,1.035,123.659,-121.28,-199.39
0.917,0.17,0.879,134.268,-53.171,-207.439
0.707,0.103,0.513,151.159,-8.232,-189.939
-0.442,-0.201,0.029,139.085,-67.317,-121.402
-1.871,0.108,-0.208,85.549,-150.183,-62.073
-1.84,0.741,-0.404,39.451,-100.732,-19.146
-0.721,0.919,-0.593,2.5,40.305,48.72
0.103,0.901,-0.609,-43.354,186.28,123.293
0.411,0.779,-0.49,-82.378,281.646,164.024
0.63,0.604,-0.218,-110.732,307.5,165.793
0.993,0.413,0.272,-128.72,266.159,142.134
1.652,0.249,0.928,-121.768,195.061,115.427
2.276,0.098,1.458,-68.415,102.561,96.463
1.586,0.145,1.587,-4.695,-45.61,24.451
1.371,0.25,1.63,33.598,-171.829,-76.28
2.356,0.176,1.671,59.573,-212.5,-126.28
2.267,0.257,1.449,81.28,-190.793,-154.878
1.372,0.319,1.177,92.256,-153.78,-177.622
0.755,0.339,1.036,102.012,-94.024,-185.793
0.567,0.414,0.648,117.012,-32.744,-170.122
-0.21,0.215,0.002,108.171,-65.122,-91.585
-1.794,0.26,-0.309,51.89,-151.524,-2.805
-2.145,0.885,-0.472,4.573,-104.573,46.28
-0.825,1.004,-0.663,-23.78,55.183,104.329
0.299,0.788,-0.643,-65.488,212.439,172.927
0.493,0.596,-0.516,-107.927,307.805,210.061
0.529,0.403,-0.129,-135.793,337.317,207.317
1.111,0.266,0.518,-144.451,303.476,173.171
1.929,0.127,1.207,-119.146,212.805,145.488
2.294,-0.021,1.546,-62.5,79.512,107.439
1.655,0.132,1.594,-8.598,-68.963,-8.171
1.888,0.213,1.678,32.744,-161.585,-110.854
2.526,0.117,1.534,56.829,-190.671,-145.183
1.881,0.191,1.251,72.744,-180.305,-172.622
0.945,0.222,1.094,80.732,-140.488,-195.549
0.453,0.216,0.938,94.39,-61.463,-197.378
0.334,0.273,0.456,103.232,13.293,-155.183
-0.727,0.184,0.055,71.646,-2.683,-48.78
-2.394,0.505,-0.205,31.341,-53.232,21.037
-2.317,0.965,-0.61,3.415,-12.5,54.329
-0.875,0.845,-0.831,-28.72,90.732,115.61
0.24,0.774,-0.646,-74.939,215.915,174.268
0.736,0.642,-0.361,-119.939,317.012,199.024
0.906,0.377,0.087,-145.976,363.232,192.744
1.266,0.225,0.69,-158.598,346.28,155.244
1.863,0.087,1.365,-139.268,267.073,125.549
2.097,-0.036,1.74,-58.476,111.524,97.256
1.308,0.001,1.831,4.085,-82.866,-13.354
1.715,0.04,2.048,47.805,-204.573,-122.683
2.569,0.028,1.898,77.683,-246.707,-159.451
2.124,0.157,1.536,95.427,-237.256,-184.024
1.178,0.205,1.326,100.305,-205.244,-203.537
0.459,0.193,1.162,107.683,-139.39,-206.951
0.248,0.295,0.659,117.805,-55.854,-179.146
-0.374,0.248,0.153,94.207,-31.585,-78.72
-2.107,0.422,-0.157,46.89,-86.585,8.72
-2.642,1.073,-0.588,3.78,-71.463,38.72
-1.105,1.026,-0.862,-30.244,33.232,91.585
0.288,0.818,-0.689,-74.634,182.256,158.659
0.767,0.592,-0.403,-119.451,300.0,195.549
0.775,0.353,0.017,-148.537,343.476,197.5
1.107,0.212,0.636,-160.244,323.476,164.39
1.76,0.074,1.311,-138.11,244.268,139.634
2.003,-0.002,1.691,-67.134,94.024,105.915
1.237,0.047,1.814,-4.939,-87.134,-11.829
1.67,0.122,2.005,43.415,-197.378,-113.659
2.438,0.019,1.809,73.659,-245.0,-141.524
1.909,0.136,1.47,88.537,-250.976,-165.305
1.092,0.244,1.268,89.695,-227.012,-187.317
0.519,0.238,1.12,91.463,-161.829,-189.451
0.228,0.333,0.674,98.598,-75.183,-168.476
-0.124,0.375,0.157,84.329,-31.524,-87.744
-1.543,0.368,-0.094,41.89,-75.732,8.293
-2.333,0.938,-0.345,-1.037,-79.085,47.256
-1.187,1.058,-0.588,-28.902,12.927,88.537
0.271,0.8,-0.5,-60.854,145.854,151.22
0.793,0.59,-0.273,-99.146,251.341,193.902
0.596,0.332,-0.036,-125.549,295.0,203.11
0.898,0.169,0.412,-136.89,299.939,168.963
1.613,0.084,1.045,-134.085,251.707,141.402
1.999,0.074,1.473,-89.634,128.78,117.195
1.527,0.053,1.619,-32.012,-36.037,23.171
1.524,0.112,1.868,17.378,-157.195,-86.524
2.227,-0.021,1.857,53.11,-226.28,-129.39
1.958,0.05,1.539,74.268,-249.268,-156.585
1.179,0.199,1.278,84.695,-236.28,-184.085
0.51,0.202,1.076,87.683,-181.402,-190.061
0.054,0.346,0.716,91.707,-90.732,-173.659
-0.093,0.467,0.228,83.78,-15.244,-104.817
-1.367,0.27,-0.113,41.037,-50.183,7.683
-2.465,0.721,-0.329,-5.122,-80.549,59.878
-1.353,0.94,-0.483,-30.732,11.037,84.085
0.289,0.666,-0.384,-54.756,153.049,132.195
0.945,0.412,-0.103,-82.988,257.561,164.512
0.995,0.212,0.369,-100.671,288.415,157.5
1.246,0.13,0.913,-94.939,259.451,114.329
1.688,0.053,1.312,-58.659,184.634,80.915
1.718,-0.005,1.438,-0.549,73.171,32.988
1.1,0.103,1.431,36.159,-19.451,-57.683
1.265,0.177,1.363,62.561,-57.378,-112.378
1.386,0.084,0.946,73.78,-81.829,-117.317
0.958,0.202,0.516,76.159,-91.402,-126.829
0.612,0.372,0.282,70.0,-83.171,-134.39
0.373,0.375,-0.033,54.695,-75.61,-118.049
0.109,0.404,-0.273,29.146,-74.451,-87.378
0.01,0.518,-0.265,7.561,-55.183,-67.012
0.133,0.606,-0.176,-5.366,-10.122,-60.976
0.383,0.653,-0.107,-16.098,41.524,-53.171
0.447,0.647,-0.111,-25.0,68.537,-40.549
0.35,0.65,-0.083,-33.902,73.049,-30.122
0.315,0.701,-0.052,-45.915,76.707,-24.634
0.405,0.767,-0.032,-61.037,91.524,-22.744
0.508,0.8,-0.002,-78.11,110.976,-23.293
0.565,0.804,0.079,-92.866,122.744,-26.159
0.575,0.808,0.192,-102.317,121.341,-32.683
0.565,0.798,0.273,-107.805,112.744,-40.732
0.571,0.764,0.37,-108.598,102.866,-48.11
0.594,0.751,0.48,-110.488,92.378,-54.512
0.62,0.766,0.563,-116.28,84.024,-59.207
0.625,0.768,0.642,-121.89,86.159,-61.037
0.604,0.742,0.705,-127.317,101.341,-59.512
0.585,0.735,0.772,-131.402,125.061,-55.061
0.603,0.739,0.825,-134.817,152.439,-51.341
0.63,0.741,0.861,-136.463,181.524,-49.512
0.626,0.717,0.833,-133.598,206.037,-51.524
0.563,0.645,0.815,-128.171,216.463,-55.976
0.426,0.585,0.835,-123.049,208.902,-62.561
0.229,0.535,0.876,-117.134,186.341,-69.085
0.045,0.482,0.939,-111.524,155.305,-74.329
-0.043,0.435,1.024,-108.049,125.732,-77.439
-0.031,0.383,1.115,-106.89,105.732,-77.622
-0.016,0.345,1.207,-106.22,101.89,-75.061
-0.042,0.302,1.251,-104.207,108.963,-70.61
-0.077,0.244,1.278,-98.72,116.707,-65.793
-0.127,0.166,1.288,-89.573,116.585,-62.378
-0.208,0.094,1.281,-79.573,102.317,-60.0
-0.292,0.04,1.267,-70.854,76.402,-57.744
-0.363,0.03,1.247,-64.024,46.89,-57.866
-0.363,0.042,1.24,-60.671,21.829,-60.488
-0.253,0.057,1.234,-60.671,4.329,-62.561
-0.093,0.046,1.243,-61.951,-0.671,-63.049
0.086,0.02,1.226,-61.646,7.805,-64.573
0.218,-0.028,1.182,-58.232,25.305,-66.098
0.255,-0.083,1.147,-53.049,47.012,-67.195
0.212,-0.144,1.125,-46.28,66.646,-69.268
0.117,-0.207,1.092,-39.146,78.293,-71.89
0.004,-0.245,1.044,-32.317,78.78,-74.573
-0.082,-0.257,0.974,-27.378,69.878,-77.866
-0.127,-0.249,0.906,-25.854,56.037,-81.89
-0.143,-0.247,0.83,-27.134,41.159,-85.61
-0.115,-0.251,0.772,-31.098,30.183,-88.537
-0.049,-0.255,0.719,-36.402,25.976,-90.0
0.035,-0.267,0.703,-42.195,28.476,-90.976
0.1,-0.285,0.726,-48.537,37.317,-92.073
0.105,-0.331,0.77,-52.988,52.073,-91.829
0.066,-0.401,0.775,-55.366,68.354,-90.366
0.033,-0.461,0.757,-55.61,79.39,-88.232
-0.016,-0.477,0.732,-56.768,83.232,-83.902
-0.104,-0.453,0.74,-59.939,80.427,-77.866
-0.182,-0.422,0.77,-64.939,73.415,-72.256
-0.191,-0.416,0.813,-68.232,64.146,-67.744
-0.163,-0.432,0.849,-68.476,56.585,-62.805
-0.143,-0.434,0.858,-66.524,52.744,-57.134
-0.139,-0.409,0.859,-62.683,51.159,-52.195
-0.153,-0.368,0.857,-59.207,50.183,-49.451
-0.203,-0.358,0.863,-56.89,48.537,-49.634
-0.234,-0.384,0.863,-53.72,45.122,-49.878
-0.23,-0.391,0.86,-51.951,41.707,-48.72
-0.217,-0.372,0.854,-52.5,40.793,-46.89
-0.236,-0.347,0.84,-53.841,39.817,-46.098
-0.261,-0.329,0.82,-54.268,39.573,-47.073
-0.262,-0.302,0.779,-53.902,41.89,-46.22
-0.256,-0.265,0.666,-57.012,42.317,-45.549
-0.248,-0.268,0.544,-51.28,40.488,-45.427
-0.435,-0.585,1.725,-18.293,114.024,-43.659
-1.946,-1.582,3.949,21.585,89.39,23.476
-1.935,-0.906,1.259,67.073,-91.037,44.329
-0.311,0.197,0.204,34.207,-115.732,19.207
0.19,0.135,0.887,38.598,-76.28,-12.012
0.238,0.257,1.282,16.585,-43.902,-5.549
0.081,0.06,1.241,-2.073,-5.244,8.11
-0.155,-0.286,1.071,7.256,18.354,1.951
-0.231,-0.29,0.952,11.768,15.183,-6.037
-0.201,-0.157,0.933,6.768,8.841,-6.951
-0.188,-0.106,0.972,1.646,16.28,-7.317
-0.205,-0.156,0.966,-0.183,25.122,-8.659
-0.262,-0.202,0.942,-1.585,26.037,-7.256
-0.357,-0.236,0.906,-2.012,18.72,-3.11
-0.422,-0.259,0.879,-0.366,7.866,0.0
