acc_x_axis_g,acc_y_axis_g,acc_z_axis_g,gyr_x_axis_deg/s,gyr_y_axis_deg/s,gyr_z_axis_deg/s
0.045,0.375,0.803,-10.0,-4.695,-2.195
0.116,0.396,0.792,-5.183,-2.561,-1.098
0.172,0.394,0.816,-2.012,3.232,-0.061
0.25,0.398,0.861,-0.61,8.354,-0.793
0.29,0.403,0.879,0.732,11.098,-4.329
0.317,0.422,0.852,1.463,14.878,-9.512
0.36,0.445,0.822,3.171,18.598,-16.829
0.404,0.436,0.813,4.207,22.561,-25.793
0.418,0.422,0.82,2.5,25.305,-35.305
0.411,0.412,0.842,-0.976,30.305,-41.28
0.333,0.386,0.829,-5.366,36.402,-41.829
0.24,0.408,0.771,-9.695,41.646,-35.0
0.075,0.446,0.749,-15.732,49.329,-22.134
-0.101,0.48,0.799,-22.622,67.622,-5.549
-0.12,0.46,0.899,-28.78,94.329,12.561
-0.236,0.376,0.972,-37.195,117.317,26.585
-0.273,0.374,1.064,-44.939,131.402,36.707
-0.218,0.36,1.188,-51.524,126.402,40.915
-0.161,0.313,1.24,-44.207,105.305,51.829
-0.124,0.268,1.111,-33.415,97.744,58.11
-0.012,0.348,1.077,-24.146,89.634,58.902
0.105,0.433,1.043,-16.829,71.951,55.0
0.051,0.497,0.964,-6.646,56.646,46.463
0.142,0.486,0.889,1.89,48.354,35.671
0.307,0.459,0.912,8.293,46.037,25.732
0.373,0.408,0.923,10.549,47.622,11.28
0.352,0.374,0.924,10.61,47.073,-3.232
0.274,0.384,0.894,8.537,42.134,-17.561
0.246,0.414,0.834,7.256,32.805,-34.268
0.228,0.448,0.774,3.171,29.512,-46.463
0.166,0.482,0.745,-1.22,28.78,-53.841
-0.013,0.462,0.691,-6.829,21.341,-58.598
-0.245,0.414,0.681,-10.366,11.585,-51.585
-0.439,0.292,0.747,-10.0,12.012,-28.841
-0.716,0.179,0.843,-12.988,19.39,-2.195
-0.87,0.192,0.938,-19.146,30.183,16.585
-0.902,0.292,1.036,-28.841,42.805,22.988
-0.723,0.366,1.069,-35.0,52.805,30.549
-0.336,0.375,1.106,-32.561,58.11,50.061
-0.067,0.349,1.055,-34.085,62.256,59.878
0.065,0.444,0.978,-32.744,60.0,59.146
0.188,0.538,0.855,-29.146,45.915,43.232
0.321,0.572,0.82,-15.122,38.232,33.78
0.54,0.4,0.844,-2.012,42.683,24.878
0.732,0.328,0.866,9.939,42.866,4.329
0.487,0.362,0.866,13.293,26.524,-24.939
0.139,0.419,0.884,9.329,5.061,-48.354
0.045,0.49,0.897,6.402,-13.963,-63.963
-0.015,0.458,0.933,7.073,-26.89,-74.085
-0.233,0.389,0.899,2.378,-21.585,-69.817
-0.319,0.316,0.941,-1.463,10.366,-38.963
-0.277,0.091,0.98,-3.902,42.683,-0.61
-0.701,0.101,0.826,-12.622,47.012,26.89
-1.252,0.407,0.722,-23.72,38.354,45.305
-1.219,0.466,0.75,-36.524,31.037,57.927
-0.806,0.418,0.809,-51.768,34.878,66.524
-0.467,0.408,0.957,-55.976,44.268,62.012
-0.127,0.299,1.176,-42.622,46.402,45.671
0.214,0.09,1.245,-11.768,32.927,25.244
0.374,0.015,1.101,13.11,14.878,10.61
0.434,0.154,0.962,21.89,6.28,-4.207
0.459,0.36,0.9,24.024,2.134,-16.951
0.321,0.498,0.81,22.561,-4.817,-28.598
0.116,0.565,0.727,17.805,-10.915,-38.841
-0.006,0.576,0.774,15.61,-11.585,-45.732
-0.078,0.484,0.83,13.354,-13.659,-49.573
-0.237,0.397,0.805,8.72,-15.0,-46.707
-0.423,0.305,0.852,8.598,-5.305,-29.451
-0.518,0.105,0.907,11.768,5.061,-9.512
-0.711,0.05,0.842,-1.22,7.683,7.5
-0.86,0.314,0.795,-16.463,9.817,22.5
-0.928,0.398,0.796,-26.28,13.963,30.976
-0.653,0.376,0.824,-31.768,17.744,34.268
-0.409,0.417,0.807,-39.695,20.671,35.549
-0.228,0.477,0.874,-43.841,27.439,40.61
-0.016,0.43,0.981,-38.659,33.841,42.317
0.151,0.316,1.013,-18.78,32.683,31.585
0.253,0.189,1.028,6.402,20.488,21.22
0.272,0.149,1.042,22.134,9.329,13.78
0.239,0.221,1.036,27.256,1.768,2.988
0.166,0.355,0.986,22.256,-1.037,-8.476
0.062,0.483,0.953,15.366,0.305,-17.805
-0.056,0.479,0.924,12.134,-2.256,-28.171
-0.15,0.421,0.913,12.683,-11.585,-40.854
-0.202,0.337,0.939,14.085,-19.756,-51.463
-0.215,0.264,0.958,16.28,-23.049,-50.854
-0.28,0.167,0.935,20.488,-17.5,-35.61
-0.515,0.096,0.8,9.329,-1.037,-10.488
-0.663,0.307,0.708,-10.793,14.512,14.512
-0.918,0.479,0.635,-24.451,13.049,32.927
-1.076,0.496,0.571,-34.39,4.939,45.244
-0.955,0.461,0.638,-47.561,2.988,53.72
-0.572,0.437,0.823,-54.451,9.756,55.549
-0.157,0.389,0.957,-41.402,22.256,47.5
0.239,0.146,1.131,-9.512,26.524,29.939
0.488,-0.128,1.205,18.476,16.89,11.22
0.456,0.014,1.142,26.89,6.524,-4.817
0.376,0.317,1.063,26.646,2.5,-20.0
0.332,0.456,1.0,23.537,-0.671,-33.659
0.153,0.502,0.947,16.28,-6.646,-46.098
0.0,0.535,0.927,13.293,-17.073,-57.378
-0.143,0.48,0.91,11.585,-24.634,-64.207
-0.276,0.369,0.929,7.744,-20.976,-51.646
-0.426,0.229,0.972,6.28,-8.476,-18.659
-0.747,0.099,0.877,1.402,1.585,10.549
-1.104,0.224,0.693,-9.939,3.78,32.012
-1.272,0.439,0.601,-20.854,0.122,48.232
-1.138,0.46,0.558,-34.634,-4.756,58.415
-0.818,0.427,0.634,-48.902,-1.463,61.22
-0.372,0.435,0.799,-50.122,18.11,57.439
0.183,0.23,1.099,-25.671,30.488,40.183
0.563,-0.144,1.183,-1.22,23.963,12.805
0.626,-0.003,1.141,16.463,13.78,-7.622
0.593,0.177,1.098,21.89,6.098,-24.146
0.555,0.35,1.06,22.988,0.793,-38.293
0.372,0.466,0.983,21.951,-5.488,-49.451
0.149,0.53,0.91,20.061,-13.11,-60.183
-0.019,0.521,0.924,18.537,-18.171,-69.024
-0.151,0.415,1.006,16.89,-15.671,-63.841
-0.267,0.234,1.054,18.049,-8.354,-36.098
-0.597,0.078,0.893,16.037,-8.354,-6.646
-1.091,0.199,0.688,1.098,-8.72,16.89
-1.439,0.467,0.552,-15.976,-5.854,38.841
-1.396,0.485,0.525,-32.012,-4.573,57.439
-1.014,0.392,0.581,-46.524,-1.341,64.878
-0.6,0.421,0.66,-61.463,12.195,63.049
-0.132,0.454,0.894,-57.927,34.146,55.488
0.412,0.157,1.272,-28.293,37.561,32.134
0.697,-0.171,1.235,2.744,21.585,4.085
0.668,0.074,1.132,25.854,8.354,-11.22
0.639,0.194,1.109,34.512,7.378,-23.841
0.618,0.304,1.156,37.256,8.598,-33.293
0.383,0.434,1.059,32.5,8.841,-41.402
0.153,0.559,0.956,25.793,7.439,-51.585
0.007,0.553,0.945,23.659,3.963,-60.061
-0.104,0.443,0.984,24.39,-2.744,-60.488
-0.328,0.263,0.967,21.89,-8.902,-42.134
-0.682,0.147,0.893,15.549,-12.012,-14.817
-1.145,0.158,0.711,1.646,-13.171,8.963
-1.437,0.36,0.581,-13.11,-11.22,30.061
-1.45,0.467,0.496,-27.073,-8.11,47.744
-1.165,0.416,0.519,-37.683,-1.524,59.085
-0.735,0.352,0.596,-47.988,7.561,63.78
-0.351,0.372,0.694,-58.354,22.683,57.683
0.036,0.38,0.984,-45.122,40.854,45.061
0.512,0.006,1.267,-15.671,39.146,20.427
0.701,-0.123,1.211,8.72,23.598,-0.488
0.612,0.131,1.144,25.244,16.037,-11.646
0.562,0.23,1.083,30.793,13.293,-21.829
0.407,0.385,1.035,31.585,4.756,-31.951
0.096,0.525,0.916,26.951,-4.329,-41.22
-0.117,0.583,0.877,23.78,-11.037,-48.354
-0.244,0.51,0.89,21.341,-13.78,-50.122
-0.368,0.387,0.92,17.256,-8.72,-37.744
-0.483,0.235,0.971,18.476,1.89,-10.61
-0.683,0.071,0.89,14.39,6.098,8.049
-0.977,0.174,0.737,-3.72,-0.488,16.707
-1.176,0.46,0.64,-19.146,-6.707,25.915
-1.036,0.49,0.609,-29.634,-2.073,36.037
-0.661,0.389,0.629,-40.061,9.39,42.439
-0.333,0.381,0.695,-49.268,21.341,42.866
-0.106,0.415,0.832,-49.207,39.573,39.39
0.167,0.267,1.096,-29.024,51.159,30.427
0.318,-0.051,1.196,-9.756,34.451,13.232
0.266,0.051,1.104,8.598,8.415,-2.378
0.113,0.215,1.008,22.134,-7.5,-14.451
0.077,0.283,0.996,27.866,-19.695,-22.622
0.045,0.351,0.99,30.793,-30.976,-31.524
-0.123,0.424,0.952,30.244,-35.244,-41.159
-0.17,0.459,0.968,29.268,-36.159,-47.866
-0.167,0.423,0.986,28.902,-37.5,-50.488
-0.262,0.361,0.961,27.927,-32.378,-42.012
-0.403,0.259,0.936,22.805,-17.378,-17.073
-0.534,0.182,0.906,14.329,-5.549,5.244
-0.789,0.223,0.784,-1.098,-1.768,20.122
-1.008,0.395,0.665,-17.012,1.646,32.439
-0.917,0.47,0.662,-31.463,8.232,42.622
-0.615,0.424,0.684,-46.707,17.012,47.622
-0.346,0.482,0.714,-52.012,26.28,49.39
-0.099,0.437,0.839,-42.561,38.841,47.378
0.172,0.169,1.061,-15.61,42.439,34.695
0.336,-0.07,1.118,8.476,23.537,17.5
0.285,0.041,1.065,24.878,9.695,5.183
0.213,0.198,1.021,30.732,8.902,-4.268
0.271,0.329,1.006,29.146,11.341,-13.232
0.208,0.433,0.981,25.549,11.463,-23.293
0.032,0.499,0.933,21.646,4.756,-34.573
-0.148,0.508,0.896,19.695,-7.805,-45.244
-0.263,0.45,0.924,19.634,-17.866,-51.707
-0.377,0.327,0.981,16.463,-21.463,-43.598
-0.494,0.21,0.996,13.598,-14.39,-17.439
-0.754,0.113,0.915,7.195,-0.671,8.354
-0.96,0.175,0.816,-6.768,7.012,24.268
-1.093,0.403,0.673,-19.939,9.207,36.524
-1.038,0.488,0.601,-36.402,11.098,46.341
-0.739,0.512,0.627,-50.244,11.768,49.817
-0.431,0.502,0.706,-57.5,24.146,48.78
-0.038,0.377,0.969,-43.049,43.415,40.183
0.374,0.001,1.187,-13.11,37.988,21.341
0.497,-0.094,1.104,11.159,14.024,6.524
0.339,0.133,0.98,27.744,2.5,-6.585
0.29,0.271,0.963,32.012,-2.073,-17.317
0.258,0.385,0.959,31.037,-7.256,-31.829
0.069,0.483,0.907,26.524,-11.646,-44.451
-0.1,0.529,0.885,23.415,-12.622,-52.561
-0.161,0.476,0.889,23.902,-13.049,-54.573
-0.312,0.377,0.861,19.695,-7.927,-39.634
-0.523,0.267,0.894,11.159,4.451,-9.39
-0.79,0.157,0.895,0.793,11.646,16.159
-1.109,0.199,0.792,-15.915,7.988,29.939
-1.333,0.464,0.632,-30.915,0.915,42.378
-1.189,0.494,0.542,-47.5,-2.073,52.073
-0.818,0.49,0.609,-53.476,9.329,54.268
-0.304,0.37,0.926,-35.0,27.378,50.366
0.225,-0.087,1.208,-7.195,21.524,30.122
0.414,-0.132,1.121,9.756,1.402,10.0
0.434,0.198,1.036,27.378,-3.841,-4.512
0.526,0.259,1.015,33.415,-0.122,-16.28
0.549,0.357,1.068,33.659,3.354,-28.659
0.368,0.475,0.993,28.902,6.951,-39.268
0.172,0.558,0.918,25.549,6.341,-47.012
-0.052,0.549,0.818,23.963,-1.098,-50.732
-0.367,0.491,0.704,17.683,-6.524,-43.049
-0.684,0.44,0.675,-1.402,6.524,-12.561
-0.772,0.351,0.876,-10.61,24.085,22.988
-1.063,0.094,0.799,-21.098,21.341,38.049
-1.451,0.262,0.635,-35.854,12.195,44.085
-1.319,0.417,0.636,-45.488,7.012,49.573
-0.811,0.333,0.794,-39.085,3.232,48.841
-0.377,0.167,1.004,-17.805,-1.951,38.537
-0.002,-0.009,1.121,2.317,-10.427,16.341
0.268,0.081,1.121,17.012,-16.646,-0.793
0.484,0.21,1.133,30.0,-13.171,-13.72
0.622,0.265,1.127,36.28,-8.049,-25.793
0.573,0.391,1.074,41.159,-6.524,-36.341
0.364,0.466,0.955,43.232,-7.805,-51.585
0.168,0.533,0.893,39.756,-13.049,-67.439
0.019,0.547,0.925,34.268,-21.829,-72.683
-0.232,0.463,0.839,16.89,-21.402,-52.5
-0.579,0.456,0.705,-8.293,-1.341,-12.805
-0.929,0.43,0.674,-26.037,21.829,18.841
-1.232,0.358,0.626,-35.671,28.171,37.378
-1.439,0.383,0.597,-44.939,24.268,49.573
-1.273,0.358,0.659,-51.951,15.61,53.963
-0.834,0.313,0.799,-49.573,8.049,49.634
-0.354,0.225,1.029,-31.341,9.573,41.89
0.145,-0.001,1.186,-1.159,10.732,28.354
0.455,-0.074,1.084,20.122,7.561,12.5
0.536,0.186,0.982,30.976,13.11,-0.488
0.596,0.347,0.975,35.549,18.963,-13.72
0.523,0.385,0.998,35.0,13.049,-31.524
0.235,0.463,0.93,31.402,-2.622,-48.354
-0.051,0.535,0.769,27.988,-20.244,-59.085
-0.403,0.528,0.585,17.012,-28.354,-55.915
-0.639,0.544,0.602,-5.976,-9.085,-22.561
-0.7,0.479,0.785,-19.268,26.463,18.232
-0.835,0.224,0.864,-21.402,39.573,37.195
-1.048,0.181,0.833,-27.805,31.341,38.537
-1.056,0.345,0.85,-26.89,15.366,38.049
-0.73,0.303,0.89,-16.463,-3.11,35.732
-0.418,0.221,0.923,-1.098,-12.927,29.512
-0.133,0.166,0.992,14.146,-11.037,21.28
0.095,0.146,1.023,24.451,-6.463,13.963
0.188,0.226,0.973,28.049,-3.476,9.146
0.146,0.348,0.905,31.28,-1.22,7.073
0.052,0.367,0.853,34.085,-0.122,6.646
-0.068,0.362,0.797,35.793,0.915,6.707
