acc_x_axis_g,acc_y_axis_g,acc_z_axis_g,gyr_x_axis_deg/s,gyr_y_axis_deg/s,gyr_z_axis_deg/s
0.305,0.498,0.68,-41.402,27.317,9.329
0.249,0.471,0.719,-44.695,9.512,0.488
0.23,0.451,0.675,-48.171,-4.39,-4.573
0.206,0.431,0.62,-50.488,-12.866,-7.805
0.202,0.471,0.612,-57.073,-16.28,-8.72
0.186,0.474,0.618,-64.39,-16.951,-7.988
0.375,0.429,0.665,-65.244,-2.256,-10.732
0.54,0.318,0.869,-61.768,26.402,-8.902
0.231,0.175,0.956,-46.768,29.695,-0.305
-0.038,0.198,0.987,-34.085,13.598,-2.5
-0.052,0.263,1.01,-28.963,-6.585,-3.171
-0.041,0.29,0.962,-26.037,-23.902,-1.89
-0.013,0.32,0.917,-24.878,-39.207,0.549
-0.037,0.339,0.867,-22.866,-54.207,4.695
-0.036,0.371,0.846,-22.683,-69.207,7.134
-0.027,0.4,0.866,-27.622,-92.134,9.085
-0.087,0.399,0.775,-32.195,-130.976,10.915
0.013,0.434,0.689,-36.402,-159.024,5.854
0.297,0.503,0.708,-44.512,-158.781,2.195
0.408,0.476,0.761,-50.671,-146.646,6.037
0.329,0.364,0.803,-46.341,-139.512,10.915
0.276,0.306,0.862,-37.439,-135.854,11.28
0.346,0.342,0.909,-34.939,-129.756,10.244
0.417,0.375,0.887,-38.72,-123.415,10.732
0.39,0.356,0.837,-40.854,-126.342,11.402
0.306,0.349,0.804,-43.293,-142.012,11.463
0.266,0.365,0.788,-49.756,-166.098,8.293
0.286,0.349,0.8,-57.927,-192.683,3.171
0.33,0.298,0.781,-62.561,-218.598,-2.195
0.406,0.263,0.741,-65.732,-242.012,-6.28
0.465,0.25,0.695,-69.512,-263.293,-10.0
0.502,0.271,0.651,-74.451,-282.988,-15.0
0.606,0.264,0.649,-82.317,-292.805,-14.878
0.73,0.238,0.669,-93.902,-288.598,-12.805
0.764,0.229,0.66,-101.768,-283.476,-15.61
0.739,0.223,0.615,-106.646,-285.0,-18.537
0.774,0.185,0.569,-111.524,-290.549,-19.573
0.808,0.141,0.56,-110.915,-293.963,-21.463
0.862,0.132,0.57,-109.634,-290.0,-22.805
0.947,0.151,0.583,-112.134,-278.232,-22.317
0.991,0.142,0.591,-111.159,-260.976,-22.622
1.006,0.15,0.572,-112.012,-240.61,-20.671
1.013,0.176,0.568,-114.146,-217.195,-17.195
0.995,0.181,0.554,-115.183,-192.927,-13.537
0.96,0.188,0.508,-115.183,-172.256,-11.28
0.921,0.177,0.454,-113.415,-154.756,-9.39
0.87,0.143,0.445,-110.915,-132.439,-5.366
0.82,0.149,0.473,-107.5,-112.622,2.744
0.78,0.139,0.514,-102.012,-96.28,9.146
0.763,0.111,0.534,-95.732,-80.366,15.793
0.754,0.116,0.544,-89.146,-69.634,20.549
0.744,0.095,0.504,-80.427,-62.805,22.683
0.78,0.065,0.426,-71.463,-53.78,22.378
0.849,0.052,0.348,-65.732,-43.78,20.122
0.902,0.053,0.303,-62.5,-35.915,16.037
0.943,0.058,0.292,-60.671,-30.244,11.28
0.992,0.058,0.276,-58.72,-26.341,6.829
1.005,0.059,0.252,-55.244,-26.037,2.683
0.976,0.066,0.238,-51.463,-27.805,-1.159
0.973,0.078,0.246,-48.659,-27.5,-4.756
0.969,0.088,0.267,-45.427,-25.549,-8.415
0.953,0.093,0.278,-40.793,-23.171,-11.707
0.937,0.095,0.281,-35.732,-21.829,-14.146
0.918,0.094,0.283,-29.695,-20.915,-15.671
0.919,0.101,0.288,-24.268,-20.793,-16.585
0.915,0.107,0.274,-17.866,-21.22,-17.561
0.916,0.117,0.262,-11.951,-21.402,-17.805
0.924,0.131,0.258,-6.646,-20.305,-17.927
0.943,0.141,0.251,-1.22,-16.524,-18.537
0.961,0.153,0.229,3.476,-11.098,-19.634
0.968,0.161,0.2,8.354,-4.878,-21.341
0.958,0.166,0.173,13.537,2.988,-23.049
0.937,0.175,0.148,17.805,13.78,-24.329
0.919,0.181,0.127,20.488,25.854,-24.573
0.875,0.187,0.114,22.317,37.012,-22.805
0.801,0.208,0.106,20.366,42.012,-18.841
0.692,0.229,0.096,16.159,37.012,-13.11
0.601,0.224,0.078,12.256,27.378,-4.634
0.565,0.229,0.066,7.683,18.293,5.366
0.559,0.228,0.052,3.72,16.341,16.28
0.604,0.229,0.047,-1.159,23.354,27.378
0.656,0.221,0.047,-7.195,34.024,37.073
0.696,0.196,0.081,-12.805,42.439,45.732
0.788,0.175,0.141,-15.732,48.354,52.012
0.872,0.149,0.202,-16.463,50.305,55.976
0.94,0.123,0.266,-16.037,46.585,58.171
1.007,0.095,0.336,-14.39,39.573,57.439
1.106,0.07,0.394,-12.378,32.378,52.5
1.207,0.057,0.424,-10.305,25.61,43.659
1.271,0.038,0.435,-6.951,18.72,32.988
1.307,0.02,0.441,-3.537,10.854,21.22
1.302,0.016,0.43,-1.22,0.488,9.634
1.276,0.014,0.432,0.976,-12.805,-0.427
1.237,0.02,0.438,3.171,-27.256,-8.476
1.206,0.032,0.427,5.488,-39.512,-14.512
1.178,0.043,0.401,6.341,-48.72,-18.963
1.144,0.05,0.375,6.402,-56.037,-22.866
1.12,0.045,0.333,6.037,-60.427,-26.89
1.108,0.045,0.289,5.366,-62.073,-31.159
1.105,0.043,0.245,4.573,-62.256,-35.183
1.12,0.042,0.208,4.268,-61.585,-39.512
1.137,0.051,0.179,4.207,-59.207,-43.902
1.117,0.08,0.165,4.085,-55.732,-47.073
1.054,0.099,0.163,5.183,-52.866,-48.72
0.976,0.107,0.172,7.134,-50.549,-48.476
0.879,0.118,0.189,8.72,-48.232,-45.915
0.761,0.135,0.215,10.061,-45.183,-41.037
0.649,0.157,0.233,10.854,-39.024,-33.11
0.556,0.185,0.239,10.915,-29.451,-22.744
0.459,0.204,0.236,9.817,-18.537,-12.012
0.388,0.216,0.208,6.707,-8.659,-1.037
0.366,0.206,0.15,4.939,2.439,10.671
0.408,0.188,0.087,3.293,14.756,22.012
0.466,0.17,0.03,1.524,27.622,31.646
0.55,0.152,0.0,-2.073,39.695,39.207
0.604,0.133,0.007,-4.939,49.329,44.085
0.656,0.099,0.042,-5.854,57.927,47.378
0.719,0.088,0.092,-7.744,63.841,49.756
0.782,0.079,0.137,-7.927,67.073,50.366
0.888,0.051,0.167,-7.378,67.866,49.756
0.966,0.038,0.211,-7.195,64.939,47.195
1.037,0.035,0.248,-7.073,60.854,42.5
1.133,0.037,0.273,-6.524,56.829,36.22
1.184,0.042,0.297,-5.732,50.671,28.354
1.211,0.046,0.313,-5.244,42.5,19.146
1.253,0.042,0.329,-3.902,33.354,9.756
1.278,0.038,0.336,-1.768,22.988,0.305
1.286,0.042,0.341,0.732,11.159,-8.476
1.287,0.04,0.346,3.72,-0.976,-16.768
1.279,0.042,0.34,6.951,-10.732,-24.329
1.271,0.056,0.322,9.512,-17.5,-30.976
1.226,0.075,0.307,10.976,-22.317,-36.159
1.157,0.085,0.303,11.707,-26.098,-40.122
1.069,0.091,0.305,12.439,-28.78,-42.561
1.0,0.095,0.302,13.537,-29.146,-42.866
0.924,0.1,0.305,14.756,-28.11,-40.549
0.827,0.121,0.304,15.549,-26.89,-36.037
0.742,0.148,0.297,15.122,-25.915,-29.817
0.666,0.169,0.291,13.963,-24.024,-21.951
0.612,0.185,0.272,12.378,-20.244,-13.171
0.571,0.185,0.251,10.427,-13.841,-3.963
0.57,0.181,0.211,8.72,-4.329,5.183
0.579,0.176,0.171,5.488,7.256,13.415
0.583,0.164,0.15,1.402,19.39,20.122
0.599,0.14,0.14,-2.378,30.549,26.402
0.597,0.124,0.155,-5.61,38.963,32.5
0.607,0.106,0.184,-6.768,45.854,37.988
0.668,0.086,0.197,-7.256,51.463,43.415
0.76,0.074,0.227,-7.927,56.159,48.171
0.854,0.064,0.267,-8.659,59.451,49.878
0.942,0.053,0.286,-9.207,61.951,49.146
1.035,0.042,0.301,-9.146,62.622,46.037
1.114,0.034,0.324,-8.659,59.085,40.183
1.175,0.028,0.354,-8.537,52.744,32.5
1.224,0.024,0.389,-7.988,45.0,22.866
1.246,0.014,0.408,-5.854,36.524,12.866
1.255,0.007,0.427,-2.866,27.927,3.72
1.248,0.008,0.446,0.793,18.902,-4.817
1.209,0.009,0.462,5.549,10.183,-12.805
1.17,0.014,0.457,10.549,4.268,-20.0
1.147,0.02,0.454,15.305,1.28,-26.341
1.105,0.023,0.442,20.122,-0.427,-31.646
1.05,0.041,0.424,24.146,-0.122,-35.732
1.016,0.054,0.401,27.5,2.927,-38.11
0.984,0.064,0.387,30.061,7.683,-38.659
0.933,0.086,0.374,30.671,11.524,-37.317
0.858,0.107,0.37,28.78,11.098,-34.756
0.751,0.124,0.363,25.732,5.854,-30.488
0.654,0.142,0.348,21.402,-0.732,-23.841
0.587,0.159,0.324,16.585,-6.22,-15.244
0.546,0.175,0.302,10.915,-8.476,-5.244
0.515,0.176,0.277,5.671,-5.183,4.451
0.537,0.165,0.237,0.183,4.146,13.354
0.554,0.164,0.228,-6.28,14.756,21.098
0.549,0.156,0.229,-11.28,23.902,28.232
0.583,0.135,0.239,-13.659,31.707,35.305
0.666,0.118,0.264,-14.451,37.439,41.098
0.767,0.104,0.299,-15.549,40.61,44.695
0.879,0.081,0.333,-15.915,42.134,45.549
1.015,0.059,0.349,-16.037,42.012,43.11
1.112,0.044,0.372,-16.768,37.866,37.256
1.183,0.027,0.411,-17.195,30.488,28.232
1.237,0.013,0.448,-16.646,21.341,17.805
1.26,-0.001,0.478,-14.756,10.427,7.012
1.256,-0.002,0.515,-11.524,-1.951,-3.293
1.223,-0.001,0.546,-6.768,-13.963,-12.805
1.184,0.0,0.554,-0.915,-24.024,-21.098
1.15,0.011,0.551,5.183,-31.585,-28.049
1.103,0.024,0.532,10.854,-36.524,-33.78
1.046,0.037,0.502,15.976,-39.695,-38.354
1.012,0.052,0.471,19.939,-40.366,-41.28
0.981,0.064,0.439,22.805,-38.293,-42.988
0.936,0.081,0.4,24.817,-35.122,-43.963
0.879,0.099,0.359,25.671,-31.646,-43.415
0.821,0.118,0.323,25.366,-28.598,-41.037
0.759,0.136,0.294,24.024,-26.768,-37.256
0.692,0.153,0.279,21.707,-24.939,-31.829
0.649,0.165,0.251,18.72,-21.22,-25.366
0.624,0.174,0.229,15.366,-14.878,-18.11
0.606,0.187,0.202,11.28,-6.585,-10.976
0.592,0.189,0.177,7.012,3.354,-4.329
0.599,0.188,0.155,3.232,14.268,1.524
0.621,0.184,0.142,-0.793,25.427,7.073
0.645,0.176,0.156,-5.244,35.061,11.951
0.648,0.176,0.188,-9.451,42.195,16.707
0.642,0.172,0.226,-12.805,46.89,21.707
0.654,0.168,0.274,-15.854,50.305,26.22
0.66,0.167,0.348,-17.805,51.22,30.183
0.688,0.14,0.398,-16.22,51.037,34.268
0.769,0.117,0.426,-13.293,51.585,37.805
0.838,0.1,0.447,-9.451,52.439,39.817
0.925,0.085,0.443,-5.488,54.329,39.451
1.023,0.081,0.442,-2.561,55.0,36.341
1.086,0.068,0.451,-0.427,50.976,30.244
1.132,0.067,0.465,0.671,42.744,22.012
1.165,0.057,0.484,1.89,32.744,13.171
1.179,0.049,0.512,3.537,21.098,4.512
1.171,0.048,0.543,6.098,8.841,-3.598
1.145,0.049,0.574,9.634,-2.622,-10.61
1.102,0.047,0.593,13.963,-12.378,-16.768
1.066,0.046,0.594,19.207,-19.634,-22.317
1.033,0.048,0.573,24.878,-23.72,-27.683
1.004,0.053,0.532,29.695,-24.207,-32.866
0.975,0.059,0.483,33.537,-21.768,-37.439
0.959,0.06,0.443,36.707,-17.561,-41.341
0.941,0.074,0.408,37.866,-12.988,-44.085
0.905,0.096,0.37,37.622,-8.415,-45.305
0.86,0.118,0.337,35.671,-5.427,-44.756
0.796,0.138,0.31,32.317,-5.122,-42.5
0.724,0.161,0.291,27.5,-6.707,-38.415
0.659,0.18,0.285,22.195,-7.988,-33.11
0.622,0.2,0.277,16.951,-6.402,-26.768
0.599,0.223,0.281,12.012,-0.732,-19.39
0.576,0.241,0.287,7.683,8.476,-11.707
0.559,0.256,0.302,3.476,18.78,-4.085
0.55,0.259,0.321,0.427,28.232,4.085
0.547,0.27,0.354,-3.537,35.183,13.232
0.534,0.269,0.397,-6.341,40.732,22.195
0.569,0.258,0.428,-7.683,45.549,30.854
0.652,0.229,0.439,-5.61,50.183,38.72
0.789,0.195,0.438,-2.012,54.817,43.78
0.908,0.175,0.457,0.244,57.866,44.329
1.015,0.156,0.478,0.854,58.171,40.427
1.112,0.132,0.482,0.732,54.634,33.598
1.161,0.106,0.499,0.854,46.037,25.0
1.169,0.094,0.531,1.098,31.829,15.061
1.149,0.086,0.562,1.159,14.573,5.61
1.117,0.085,0.588,1.28,-1.037,-2.622
1.054,0.089,0.613,2.134,-12.073,-8.963
0.989,0.094,0.614,4.085,-18.476,-13.354
0.934,0.098,0.595,6.829,-21.402,-15.671
0.869,0.102,0.575,9.878,-22.134,-16.402
0.822,0.117,0.552,12.317,-20.915,-16.646
0.797,0.129,0.519,13.902,-18.049,-16.098
0.784,0.142,0.479,14.451,-14.39,-15.061
0.783,0.155,0.44,14.085,-10.366,-13.841
0.785,0.166,0.411,12.5,-7.073,-12.622
0.788,0.173,0.386,9.939,-5.244,-11.28
0.794,0.176,0.371,6.829,-4.512,-9.817
0.786,0.177,0.369,3.537,-3.963,-8.476
0.772,0.183,0.37,0.122,-3.232,-6.89
0.751,0.188,0.379,-2.927,-2.256,-5.0
0.734,0.188,0.401,-5.122,-0.488,-2.561
0.728,0.188,0.428,-6.646,2.073,0.244
0.738,0.186,0.448,-7.195,5.061,3.049
0.753,0.179,0.461,-6.951,8.11,5.183
0.777,0.173,0.466,-6.098,10.793,6.341
0.809,0.17,0.459,-5.061,12.927,6.341
0.84,0.165,0.455,-4.329,14.329,5.61
0.875,0.163,0.46,-4.085,14.207,4.024
0.888,0.16,0.469,-3.78,12.378,1.829
0.887,0.159,0.476,-3.841,9.085,-0.183
0.868,0.156,0.487,-3.72,5.244,-1.89
0.851,0.158,0.498,-3.415,2.683,-2.866
0.837,0.163,0.498,-2.256,2.256,-2.927
0.825,0.166,0.492,-0.976,3.232,-2.5
0.808,0.165,0.478,-0.061,5.305,-1.951
0.801,0.165,0.461,0.61,7.927,-1.28
0.801,0.171,0.437,0.305,10.488,-0.427
0.802,0.177,0.425,-0.854,11.951,0.549
0.805,0.18,0.426,-2.5,11.463,1.585
0.813,0.184,0.441,-3.841,10.244,2.561
0.822,0.182,0.458,-4.695,9.451,3.049
0.833,0.174,0.478,-5.061,8.415,3.232
0.847,0.166,0.506,-4.451,6.707,2.805
0.867,0.155,0.539,-2.927,4.939,1.768
0.887,0.146,0.564,-0.488,2.866,0.061
0.896,0.141,0.579,2.805,0.854,-2.439
0.899,0.138,0.573,5.976,-0.305,-5.549
0.903,0.141,0.559,8.476,-0.915,-8.354
0.896,0.146,0.547,10.061,-2.073,-10.976
0.876,0.152,0.53,11.098,-4.024,-12.927
0.841,0.161,0.509,11.89,-6.037,-13.963
0.818,0.171,0.485,12.073,-6.89,-13.841
0.8,0.184,0.458,11.341,-6.159,-12.805
0.778,0.198,0.436,9.695,-4.085,-11.037
0.751,0.208,0.41,7.378,-1.341,-8.354
0.717,0.215,0.389,4.939,2.561,-4.878
0.703,0.227,0.372,1.951,7.927,-0.732
0.688,0.23,0.365,-1.463,13.415,3.841
0.681,0.226,0.357,-5.061,18.841,8.537
0.682,0.224,0.353,-8.841,23.598,13.171
0.676,0.217,0.376,-12.683,25.976,17.317
0.682,0.208,0.412,-15.671,27.012,20.915
0.719,0.195,0.452,-17.317,28.049,24.146
0.74,0.181,0.494,-17.683,28.841,26.098
0.778,0.163,0.525,-16.768,30.061,26.707
0.836,0.142,0.56,-15.061,30.366,25.915
0.886,0.129,0.597,-12.5,28.049,23.476
0.933,0.12,0.621,-9.756,23.232,19.634
0.98,0.105,0.646,-6.646,16.402,14.634
1.011,0.096,0.667,-3.232,7.622,8.232
1.035,0.088,0.681,0.549,-1.707,0.854
1.042,0.081,0.687,4.573,-10.549,-6.829
1.027,0.079,0.684,8.659,-18.11,-14.39
1.005,0.083,0.671,13.11,-23.841,-21.159
0.973,0.089,0.648,17.622,-27.134,-26.707
0.935,0.103,0.617,21.463,-28.537,-30.854
0.893,0.118,0.577,24.146,-28.902,-33.415
0.856,0.137,0.535,25.61,-28.476,-34.695
0.814,0.163,0.495,25.976,-27.866,-34.39
0.759,0.183,0.456,25.244,-27.256,-32.561
0.713,0.204,0.424,23.049,-26.28,-29.207
0.667,0.219,0.405,20.305,-24.329,-24.878
0.634,0.23,0.382,17.195,-19.878,-20.061
0.625,0.245,0.35,13.476,-13.171,-14.695
0.606,0.257,0.328,9.817,-4.634,-9.329
0.585,0.257,0.303,6.524,5.854,-3.963
0.593,0.26,0.276,2.927,17.866,1.829
0.595,0.258,0.264,-0.915,29.817,7.256
0.601,0.25,0.271,-4.695,41.829,12.439
0.618,0.25,0.291,-9.756,51.341,17.744
0.632,0.249,0.344,-15.061,54.39,22.439
0.635,0.234,0.398,-19.024,51.585,26.829
0.654,0.208,0.447,-20.427,47.439,30.244
0.72,0.197,0.493,-20.122,44.085,32.073
0.798,0.184,0.537,-18.537,41.463,32.195
0.872,0.159,0.575,-16.402,39.207,30.305
0.926,0.149,0.616,-14.695,36.768,26.585
0.95,0.135,0.654,-11.89,33.171,21.463
0.972,0.123,0.687,-7.317,26.646,15.61
0.968,0.114,0.709,-2.073,16.22,9.512
0.943,0.11,0.723,2.561,3.293,3.171
0.912,0.103,0.724,7.439,-8.354,-2.683
0.887,0.103,0.693,12.073,-16.829,-7.5
0.874,0.115,0.659,15.854,-21.22,-10.732
0.861,0.128,0.627,19.207,-20.061,-13.11
0.868,0.147,0.585,20.671,-14.817,-14.878
0.858,0.16,0.542,20.915,-9.024,-15.976
0.843,0.17,0.507,20.427,-5.061,-16.524
0.833,0.181,0.493,19.573,-3.78,-16.585
0.826,0.189,0.482,18.476,-4.939,-16.28
0.844,0.194,0.487,17.439,-7.5,-15.732
0.853,0.197,0.496,17.5,-9.573,-16.098
0.862,0.201,0.481,17.744,-8.72,-17.195
0.877,0.206,0.472,17.683,-4.939,-18.476
0.87,0.208,0.468,17.134,-0.549,-19.573
0.83,0.217,0.474,15.549,2.927,-20.366
0.752,0.22,0.484,14.024,5.122,-20.305
0.693,0.229,0.479,11.463,5.061,-17.622
0.598,0.244,0.481,8.78,2.012,-12.805
0.504,0.255,0.483,6.22,-1.463,-6.22
0.459,0.267,0.465,2.866,-2.622,2.073
0.456,0.269,0.447,-0.915,-2.256,11.159
