acc_x_axis_g,acc_y_axis_g,acc_z_axis_g,gyr_x_axis_deg/s,gyr_y_axis_deg/s,gyr_z_axis_deg/s
0.14,0.996,0.346,-1.829,-1.646,6.585
0.142,0.995,0.336,-1.768,-3.11,4.512
0.128,0.993,0.33,1.768,0.549,2.927
0.156,0.976,0.332,4.756,3.78,3.963
0.225,0.964,0.354,6.524,7.073,6.402
0.24,0.949,0.388,7.744,12.378,8.78
0.228,0.937,0.445,9.451,19.939,11.89
0.255,0.962,0.481,12.5,31.098,14.817
0.248,0.967,0.447,14.573,41.646,17.805
0.255,0.948,0.399,15.549,47.317,21.585
0.296,0.917,0.356,15.61,46.524,25.366
0.332,0.856,0.302,15.183,42.256,29.695
0.38,0.801,0.292,15.183,40.183,34.329
0.396,0.792,0.292,14.695,40.183,37.561
0.4,0.782,0.28,14.634,39.634,38.902
0.398,0.765,0.25,15.732,42.195,39.024
0.375,0.746,0.214,17.317,43.537,38.659
0.351,0.731,0.183,17.927,39.146,39.512
0.298,0.711,0.158,17.134,30.549,40.427
0.245,0.693,0.13,15.976,20.0,40.854
0.178,0.689,0.09,17.073,12.988,40.061
0.153,0.67,0.07,18.415,11.951,37.622
0.144,0.658,0.056,17.744,11.341,33.476
0.146,0.66,0.056,17.317,10.183,28.415
0.173,0.667,0.105,18.293,10.0,23.78
0.194,0.688,0.17,19.695,10.305,19.085
0.201,0.711,0.219,19.634,9.085,13.963
0.188,0.742,0.243,19.207,7.195,8.659
0.162,0.798,0.252,17.439,5.0,2.683
0.14,0.863,0.248,14.695,5.061,-2.805
0.188,0.923,0.22,12.195,8.963,-7.866
0.244,0.957,0.194,10.061,15.61,-12.683
0.221,1.04,0.205,7.866,19.817,-17.256
0.204,1.121,0.231,5.61,20.915,-22.134
0.255,1.188,0.271,3.354,19.207,-28.232
0.275,1.213,0.327,1.585,13.537,-35.0
0.273,1.205,0.387,1.707,6.951,-41.646
0.283,1.208,0.437,4.085,4.146,-46.585
0.276,1.209,0.481,8.354,6.829,-48.171
0.26,1.188,0.511,15.671,16.037,-47.927
0.26,1.161,0.531,21.28,29.512,-47.622
0.267,1.153,0.566,22.927,41.098,-45.671
0.247,1.141,0.597,22.744,52.256,-41.463
0.234,1.133,0.592,22.195,62.378,-35.976
0.216,1.118,0.566,21.585,66.341,-29.634
0.19,1.088,0.526,19.695,62.5,-22.317
0.168,1.074,0.487,15.61,50.366,-14.085
0.189,1.058,0.433,10.915,32.988,-5.244
0.158,1.044,0.369,8.11,15.854,3.78
0.129,1.021,0.333,6.402,3.11,12.012
0.155,0.983,0.297,4.451,-3.415,18.476
0.17,0.939,0.247,2.561,-4.573,23.659
0.133,0.903,0.227,0.427,-4.451,27.683
0.153,0.918,0.178,-1.89,-4.024,31.585
0.295,0.813,0.149,-4.451,-2.866,35.671
0.333,0.776,0.155,-4.939,2.317,40.061
0.304,0.778,0.136,-3.049,10.549,44.268
0.354,0.725,0.123,-1.707,14.634,48.293
0.396,0.701,0.104,-1.951,13.78,52.073
0.389,0.687,0.071,-2.5,8.78,54.451
0.376,0.667,0.059,-3.598,-2.378,54.512
0.323,0.667,0.028,-8.841,-16.159,52.988
0.275,0.688,-0.001,-10.427,-31.341,50.366
0.256,0.708,0.0,-7.805,-29.634,48.72
0.23,0.71,-0.01,-6.341,-25.61,45.549
0.203,0.717,-0.041,-1.951,-26.341,40.488
0.201,0.708,-0.067,4.146,-23.415,34.085
0.204,0.684,-0.057,8.598,-21.341,25.854
0.204,0.669,-0.028,11.585,-23.11,17.317
0.229,0.677,0.02,14.207,-24.756,9.146
0.261,0.698,0.059,16.22,-25.183,2.378
0.271,0.725,0.075,18.415,-24.634,-3.963
0.241,0.781,0.069,22.744,-20.122,-10.671
0.19,0.838,0.07,28.049,-10.122,-16.89
0.175,0.873,0.081,32.5,2.927,-22.683
0.172,0.886,0.134,35.671,15.488,-28.841
0.189,0.961,0.243,37.866,25.122,-34.939
0.25,1.088,0.352,38.659,30.061,-40.732
0.286,1.209,0.457,38.049,32.561,-45.671
0.287,1.279,0.55,38.537,38.11,-49.573
0.298,1.307,0.587,41.28,48.171,-53.354
0.291,1.284,0.564,44.39,57.683,-57.134
0.231,1.248,0.479,46.707,64.451,-59.268
0.192,1.219,0.353,48.78,68.841,-59.939
0.202,1.204,0.253,46.89,66.402,-58.598
0.206,1.202,0.199,40.793,54.878,-54.39
0.206,1.199,0.175,34.878,39.451,-49.329
0.207,1.196,0.169,28.841,25.061,-41.951
0.186,1.195,0.183,24.024,12.256,-33.049
0.164,1.188,0.217,21.951,1.341,-24.39
0.151,1.183,0.258,21.646,-7.073,-16.829
0.153,1.159,0.314,19.695,-13.354,-9.146
0.187,1.107,0.38,15.61,-16.585,-1.951
0.221,1.072,0.419,9.695,-16.22,4.512
0.25,1.029,0.418,1.402,-14.085,9.817
0.286,0.988,0.411,-9.451,-10.854,13.11
0.326,0.954,0.363,-21.646,-7.439,14.939
0.327,0.923,0.299,-33.476,-3.78,17.256
0.307,0.877,0.231,-40.671,2.927,21.585
0.292,0.859,0.18,-43.415,9.085,26.098
0.267,0.838,0.048,-44.878,9.329,30.61
0.264,0.762,0.003,-46.037,1.585,34.512
0.235,0.745,-0.012,-47.5,-14.329,36.585
0.167,0.754,-0.065,-48.537,-33.171,38.232
0.14,0.75,-0.085,-46.28,-46.463,39.695
0.131,0.732,-0.058,-41.768,-54.451,38.232
0.131,0.711,-0.004,-39.146,-61.463,34.695
0.132,0.707,0.042,-40.0,-68.049,30.427
0.145,0.694,0.085,-45.732,-73.293,25.427
0.174,0.664,0.125,-47.073,-73.659,22.378
0.207,0.645,0.127,-44.451,-64.207,19.146
0.238,0.629,0.077,-41.768,-54.085,14.573
0.273,0.619,0.002,-38.963,-46.646,12.927
0.309,0.625,-0.034,-34.817,-36.951,11.28
0.324,0.637,-0.037,-27.744,-22.622,8.78
0.331,0.665,-0.014,-19.695,-6.341,6.22
0.318,0.715,0.034,-10.854,6.768,2.5
0.268,0.788,0.089,-1.524,16.463,-3.049
0.208,0.857,0.152,6.89,24.085,-8.963
0.16,0.915,0.192,12.744,30.366,-14.573
0.146,0.973,0.22,16.646,36.402,-20.183
0.151,1.008,0.273,18.415,44.024,-25.244
0.154,1.108,0.363,17.988,51.402,-31.037
0.202,1.223,0.419,16.768,56.22,-36.098
0.24,1.255,0.488,16.159,59.878,-40.549
0.255,1.273,0.53,17.683,64.634,-43.902
0.23,1.284,0.546,21.768,70.122,-47.256
0.22,1.302,0.532,26.463,74.39,-50.732
0.186,1.316,0.499,31.463,77.744,-51.768
0.132,1.298,0.454,36.22,76.829,-50.732
0.151,1.251,0.42,37.988,68.354,-48.598
0.208,1.226,0.467,36.22,53.598,-43.415
0.253,1.228,0.549,35.0,38.049,-37.866
0.249,1.223,0.6,33.537,25.61,-31.585
0.217,1.187,0.601,30.183,13.902,-24.512
0.195,1.139,0.567,25.183,4.756,-17.256
0.178,1.094,0.53,18.841,1.951,-11.159
0.163,1.056,0.491,11.341,3.902,-4.878
0.13,1.033,0.447,1.098,5.732,2.317
0.078,1.005,0.384,-12.866,4.756,11.585
0.048,0.958,0.3,-26.585,-2.317,19.817
0.029,0.942,0.252,-39.207,-16.89,23.902
0.081,0.928,0.17,-49.939,-37.927,26.707
0.162,0.868,0.134,-55.793,-58.659,29.817
0.166,0.821,0.065,-57.683,-72.866,32.073
0.165,0.79,0.026,-55.549,-79.451,35.122
0.171,0.791,0.026,-51.707,-78.659,37.866
0.171,0.772,0.04,-49.146,-74.451,39.085
0.181,0.745,0.054,-48.841,-71.646,38.841
0.182,0.749,0.068,-49.573,-70.305,37.866
0.164,0.746,0.078,-52.988,-70.671,35.366
0.165,0.729,0.082,-52.683,-69.817,32.134
0.179,0.727,0.088,-50.366,-64.573,30.061
0.169,0.726,0.089,-46.463,-61.646,27.561
0.15,0.716,0.083,-42.5,-62.561,24.329
0.151,0.705,0.074,-40.122,-63.415,22.134
0.161,0.685,0.057,-35.915,-59.268,21.402
0.186,0.675,0.016,-28.963,-50.793,18.902
0.235,0.687,-0.033,-22.622,-43.11,15.305
0.303,0.67,-0.042,-16.768,-37.073,12.744
0.397,0.624,-0.013,-9.573,-28.415,10.854
0.469,0.637,0.048,-1.646,-17.439,7.439
0.477,0.695,0.126,6.159,-7.439,3.78
0.381,0.752,0.216,13.415,2.256,0.305
0.274,0.813,0.301,20.915,14.573,-4.146
0.172,0.882,0.362,27.927,31.829,-8.293
0.049,0.941,0.383,33.902,53.354,-12.561
-0.063,1.017,0.375,37.988,72.5,-18.659
-0.085,1.068,0.355,38.354,80.122,-27.927
-0.046,1.074,0.392,36.037,78.354,-36.768
0.03,1.084,0.424,35.549,75.854,-43.598
0.139,1.11,0.432,36.524,71.707,-53.293
0.246,1.108,0.435,37.439,66.098,-61.402
0.308,1.125,0.432,37.012,60.122,-65.915
0.316,1.166,0.43,37.561,53.78,-68.415
0.33,1.156,0.435,39.024,48.415,-64.817
0.337,1.135,0.448,42.256,42.866,-57.866
0.279,1.116,0.432,45.976,34.695,-52.134
0.222,1.125,0.39,44.756,19.268,-45.732
0.17,1.207,0.344,40.061,-3.11,-38.293
0.065,1.237,0.293,34.817,-25.0,-34.024
0.033,1.246,0.249,28.354,-40.793,-30.61
0.033,1.259,0.241,20.244,-51.22,-26.707
0.015,1.248,0.25,12.439,-60.671,-24.329
0.061,1.218,0.251,6.402,-67.561,-22.927
0.133,1.178,0.263,1.707,-72.561,-21.89
0.178,1.108,0.279,-0.793,-75.427,-19.634
0.199,1.047,0.285,-2.988,-71.159,-14.146
0.214,1.015,0.285,-6.646,-63.171,-9.939
0.244,0.987,0.285,-10.488,-52.439,-4.634
0.277,0.952,0.243,-14.39,-34.817,2.256
0.307,0.925,0.203,-19.146,-13.963,7.378
0.304,0.895,0.207,-22.744,6.341,15.122
0.205,0.893,0.271,-26.22,22.195,22.866
0.188,0.911,0.134,-26.951,30.488,28.476
0.278,0.863,0.102,-26.89,29.085,30.854
0.226,0.849,0.121,-29.268,18.293,31.585
0.085,0.862,0.102,-33.049,2.195,32.317
0.03,0.832,0.082,-35.244,-10.549,31.89
0.067,0.771,0.083,-34.939,-16.951,31.585
0.082,0.736,0.091,-32.927,-20.549,28.78
0.053,0.703,0.067,-31.829,-24.024,23.659
0.066,0.636,0.078,-34.756,-27.988,22.5
0.132,0.622,0.1,-29.878,-25.488,22.683
0.197,0.63,0.127,-23.963,-7.439,20.488
0.288,0.634,0.135,-21.768,8.293,18.841
0.366,0.641,0.106,-19.39,10.671,17.073
0.413,0.654,0.071,-15.915,9.939,16.951
0.438,0.678,0.053,-10.061,15.549,15.915
0.398,0.715,0.053,-4.512,20.488,12.378
0.33,0.748,0.074,1.28,17.683,7.439
0.297,0.778,0.098,6.646,11.037,4.39
0.274,0.814,0.137,10.061,4.512,0.732
0.19,0.844,0.184,12.134,-2.5,-4.695
0.014,0.89,0.215,12.866,-7.561,-13.11
-0.129,0.947,0.266,12.073,-7.805,-19.939
-0.197,1.074,0.339,11.28,-3.354,-24.207
-0.186,1.203,0.431,11.28,2.378,-30.061
-0.128,1.201,0.483,11.89,6.341,-36.646
-0.088,1.156,0.499,13.841,11.159,-41.951
-0.003,1.156,0.495,17.073,20.61,-45.061
0.106,1.128,0.502,22.256,35.427,-48.537
0.185,1.092,0.5,27.561,51.159,-52.378
0.223,1.079,0.476,29.939,62.927,-50.732
0.241,1.087,0.451,29.451,63.232,-44.268
0.239,1.126,0.431,29.146,53.049,-38.537
0.188,1.164,0.41,29.695,40.0,-37.012
0.135,1.183,0.379,29.634,27.134,-32.866
0.09,1.211,0.359,28.171,14.451,-23.841
0.071,1.221,0.345,26.159,2.134,-16.89
0.073,1.22,0.338,22.256,-12.805,-13.232
0.075,1.226,0.338,16.037,-32.5,-9.878
0.086,1.2,0.362,8.11,-53.232,-6.037
0.134,1.162,0.362,-1.341,-71.524,-3.415
0.19,1.109,0.354,-11.89,-86.524,-0.61
0.234,1.047,0.35,-20.793,-97.622,1.707
0.279,0.992,0.341,-30.122,-103.049,5.427
0.303,0.95,0.301,-38.72,-101.707,11.829
0.321,0.913,0.259,-43.72,-95.244,19.512
0.304,0.887,0.29,-45.488,-87.744,26.646
0.224,0.889,0.243,-47.683,-80.793,29.939
0.242,0.858,0.164,-45.61,-66.829,35.305
0.303,0.802,0.106,-40.976,-46.098,40.0
0.28,0.744,0.084,-36.768,-25.732,41.463
0.22,0.734,0.089,-32.195,-10.427,41.89
0.188,0.752,0.07,-27.744,-1.524,41.829
0.252,0.745,0.012,-22.927,2.317,41.28
0.291,0.676,-0.015,-17.683,4.329,38.902
0.172,0.599,0.022,-17.561,1.402,33.293
0.025,0.622,-0.027,-18.78,-8.902,30.366
-0.009,0.654,-0.031,-16.341,-15.244,25.305
-0.013,0.647,-0.015,-14.146,-13.841,18.476
-0.033,0.667,-0.021,-13.902,-11.341,12.378
-0.001,0.7,-0.022,-15.305,-10.793,7.5
0.071,0.728,0.008,-15.793,-5.244,3.537
0.133,0.749,0.113,-13.049,10.61,0.122
0.124,0.762,0.27,-5.793,32.927,-6.707
0.1,0.778,0.405,0.244,47.256,-11.829
0.139,0.797,0.457,3.841,45.793,-13.354
0.17,0.813,0.416,5.244,38.841,-14.39
0.189,0.835,0.344,5.366,30.0,-16.707
0.203,0.894,0.331,4.756,20.061,-15.61
0.206,0.96,0.325,3.78,17.378,-14.146
0.215,1.011,0.321,5.793,27.561,-15.915
0.251,1.117,0.35,11.28,45.061,-21.037
0.266,1.174,0.389,17.866,59.207,-26.037
0.211,1.164,0.429,22.866,64.756,-31.341
0.151,1.209,0.473,25.671,62.561,-36.585
0.083,1.265,0.547,26.037,53.415,-39.268
0.033,1.299,0.59,25.061,36.463,-39.817
0.051,1.34,0.589,21.463,13.963,-39.451
0.081,1.339,0.57,16.829,-5.122,-39.512
0.065,1.289,0.589,13.232,-12.439,-37.134
0.083,1.237,0.64,10.0,-8.841,-36.463
0.143,1.195,0.674,7.439,4.085,-35.305
0.174,1.132,0.661,4.573,18.963,-29.512
0.189,1.092,0.597,0.061,29.085,-22.683
0.191,1.064,0.531,-4.634,31.22,-14.878
0.175,1.022,0.463,-7.439,25.061,-4.695
0.144,1.012,0.398,-9.634,13.78,6.463
0.113,0.987,0.403,-10.732,0.427,16.585
0.085,0.957,0.401,-11.646,-13.659,26.89
0.115,0.921,0.327,-12.622,-25.732,35.549
0.196,0.862,0.289,-13.232,-31.524,39.939
0.134,0.802,0.235,-12.744,-32.012,41.89
0.071,0.767,0.159,-11.463,-29.634,42.378
0.097,0.755,0.027,-9.634,-23.293,41.646
0.139,0.717,-0.043,-9.207,-17.378,42.866
0.144,0.673,-0.027,-9.878,-15.976,43.841
0.114,0.652,-0.037,-10.427,-15.915,42.073
0.118,0.603,-0.027,-11.22,-13.293,42.012
0.176,0.561,0.036,-9.085,-8.841,38.476
0.232,0.576,0.093,-8.841,-7.988,31.098
0.214,0.63,0.123,-9.268,-11.28,30.183
0.139,0.692,0.111,-9.207,-20.061,28.902
0.106,0.735,0.083,-9.939,-28.72,24.024
0.126,0.77,0.035,-9.329,-29.756,19.573
0.143,0.802,0.01,-10.488,-26.829,15.854
0.136,0.821,0.026,-13.232,-25.915,11.098
0.126,0.829,0.094,-13.72,-21.524,5.122
0.126,0.835,0.18,-11.646,-8.598,0.305
0.183,0.845,0.174,-8.232,7.683,-4.329
0.215,0.813,0.176,-4.329,17.866,-10.732
0.108,0.793,0.224,-2.195,18.537,-16.22
0.048,0.913,0.253,-1.463,12.561,-19.451
0.124,1.051,0.323,-0.366,3.78,-21.28
0.176,1.102,0.381,0.915,-4.39,-21.89
0.215,1.126,0.398,3.049,-9.573,-22.195
0.251,1.177,0.396,6.037,-9.939,-23.293
0.236,1.254,0.417,8.354,-4.085,-24.146
0.213,1.31,0.479,10.488,7.317,-25.61
0.196,1.327,0.533,11.768,16.037,-29.878
0.216,1.309,0.557,10.61,16.524,-27.134
0.259,1.267,0.544,10.488,13.659,-23.963
0.207,1.198,0.535,12.866,16.646,-28.476
0.134,1.138,0.559,16.951,25.549,-32.073
0.114,1.104,0.577,22.134,31.89,-30.488
0.14,1.095,0.538,26.829,33.354,-27.012
0.158,1.089,0.489,30.366,33.476,-21.89
0.156,1.075,0.44,31.037,31.098,-16.341
0.157,1.045,0.39,27.561,24.756,-10.305
0.148,1.002,0.362,22.988,21.22,-0.305
0.149,0.953,0.347,19.634,17.439,7.805
0.177,0.903,0.31,15.061,2.073,12.622
0.213,0.868,0.274,7.805,-22.378,18.232
0.204,0.845,0.268,1.28,-42.195,24.512
0.172,0.833,0.292,-3.11,-50.915,28.11
0.166,0.839,0.274,-6.463,-48.598,31.951
0.213,0.825,0.208,-8.232,-40.488,35.793
0.254,0.8,0.154,-9.146,-33.171,37.317
0.226,0.798,0.112,-9.329,-29.695,37.561
0.156,0.815,0.128,-8.537,-27.927,38.841
0.103,0.833,0.136,-7.012,-26.037,39.756
0.173,0.81,0.092,-5.427,-24.695,37.256
0.234,0.746,0.096,-5.61,-26.341,32.805
0.151,0.715,0.108,-8.902,-32.988,28.049
0.035,0.706,0.073,-12.744,-38.537,25.183
0.037,0.692,0.033,-13.232,-35.0,21.524
0.152,0.675,0.045,-11.22,-24.451,18.232
0.225,0.666,0.083,-8.963,-16.28,14.878
0.25,0.652,0.099,-9.39,-13.537,11.28
0.262,0.655,0.121,-8.354,-11.037,8.049
0.275,0.675,0.143,-2.195,-0.183,2.561
0.284,0.688,0.163,3.963,14.024,-2.927
0.278,0.691,0.178,6.829,18.049,-5.793
0.302,0.715,0.196,7.5,14.573,-7.439
0.305,0.759,0.217,7.5,16.402,-7.744
0.265,0.857,0.232,5.854,25.915,-8.049
0.269,0.964,0.246,3.11,35.183,-9.39
0.173,1.014,0.301,0.732,35.427,-12.622
0.083,1.065,0.316,-1.22,26.463,-16.89
0.112,1.177,0.343,-3.415,12.683,-22.195
0.151,1.266,0.414,-6.646,-2.5,-28.659
0.196,1.292,0.479,-9.634,-12.988,-34.024
0.202,1.351,0.522,-12.866,-14.695,-39.817
0.227,1.347,0.535,-15.488,-8.963,-42.439
0.228,1.278,0.486,-14.451,2.378,-40.0
0.219,1.205,0.396,-10.976,11.829,-42.012
0.209,1.157,0.35,-7.805,12.439,-39.207
0.188,1.143,0.354,-2.5,3.841,-34.268
0.169,1.134,0.379,2.378,-4.146,-34.268
0.184,1.125,0.391,2.988,-3.72,-33.11
0.231,1.099,0.397,1.585,1.646,-27.805
0.246,1.043,0.412,3.11,11.037,-21.22
0.235,0.994,0.417,6.524,22.805,-14.939
0.18,0.979,0.407,9.939,29.817,-8.049
0.15,0.97,0.401,10.61,27.561,-0.549
0.147,0.959,0.387,6.951,16.951,5.305
0.12,0.959,0.41,0.366,3.11,8.049
0.149,0.961,0.347,-4.817,-4.329,11.646
0.21,0.901,0.327,-5.915,0.61,15.549
0.212,0.837,0.293,-4.512,15.671,17.561
0.16,0.813,0.23,-2.378,32.805,21.037
0.125,0.761,0.188,-2.378,38.598,24.024
0.117,0.739,0.174,-2.988,30.183,25.549
0.143,0.743,0.155,-3.841,15.488,25.061
0.157,0.695,0.133,-5.061,-0.183,23.72
0.122,0.656,0.073,-7.439,-11.89,24.024
0.087,0.664,-0.001,-6.768,-13.902,23.537
0.09,0.665,-0.022,-5.427,-4.878,21.22
0.122,0.649,0.002,-5.793,3.049,20.854
0.128,0.622,0.062,-5.793,3.537,19.085
0.056,0.619,0.099,-5.061,1.585,16.463
0.009,0.653,0.11,-3.049,-0.488,14.329
0.064,0.667,0.15,-0.061,-0.488,8.963
0.102,0.687,0.224,3.049,4.268,4.817
0.1,0.741,0.309,4.756,12.927,3.659
0.176,0.809,0.38,4.939,25.305,2.988
0.362,0.812,0.369,3.598,42.622,0.915
0.338,0.782,0.399,2.622,57.866,-2.622
0.255,0.808,0.39,0.488,58.11,-8.232
0.354,0.844,0.317,-3.11,39.695,-12.683
0.407,0.847,0.244,-6.402,11.463,-14.695
0.373,0.888,0.233,-9.512,-14.329,-16.829
0.389,0.902,0.252,-13.171,-34.207,-20.366
0.457,0.903,0.277,-16.402,-46.037,-23.476
0.471,0.954,0.277,-13.232,-45.244,-28.415
0.469,1.004,0.277,-5.488,-36.402,-37.317
0.507,0.999,0.264,-1.524,-30.061,-40.671
