acc_x_axis_g,acc_y_axis_g,acc_z_axis_g,gyr_x_axis_deg/s,gyr_y_axis_deg/s,gyr_z_axis_deg/s
0.019,0.905,0.629,63.171,135.061,-7.988
0.113,0.847,0.611,52.195,120.488,-8.232
0.227,0.829,0.523,37.378,106.707,-3.476
0.262,0.872,0.435,20.976,92.195,0.427
0.208,0.918,0.397,5.854,77.073,5.183
0.114,0.943,0.396,-10.0,62.683,11.524
0.027,0.936,0.431,-23.354,50.732,13.354
0.018,0.916,0.471,-33.293,36.463,11.159
0.043,0.887,0.541,-43.659,22.805,10.915
0.054,0.839,0.619,-51.646,13.171,9.756
0.04,0.775,0.672,-54.024,1.585,8.354
-0.048,0.729,0.662,-52.378,-15.549,10.549
-0.166,0.727,0.646,-52.622,-38.537,6.22
-0.255,0.737,0.632,-54.756,-75.244,-5.183
-0.318,0.729,0.556,-52.805,-117.927,-12.195
-0.179,0.737,0.617,-47.683,-149.268,-28.72
0.119,0.76,0.788,-52.439,-172.683,-51.463
0.157,0.714,0.894,-57.317,-192.378,-67.622
0.038,0.696,0.915,-64.573,-229.939,-85.976
-0.083,0.777,0.793,-76.402,-293.537,-110.0
-0.18,0.857,0.623,-92.439,-366.89,-132.134
-0.169,0.942,0.495,-121.402,-438.049,-149.451
-0.034,0.905,0.326,-135.305,-496.463,-156.89
0.177,0.815,0.228,-135.793,-536.22,-151.402
0.322,0.784,0.255,-140.61,-557.622,-142.317
0.345,0.765,0.384,-141.707,-559.085,-138.171
0.306,0.726,0.513,-132.378,-548.293,-133.841
0.294,0.638,0.585,-108.659,-519.268,-128.049
0.436,0.562,0.599,-78.963,-467.5,-120.183
0.625,0.56,0.578,-49.146,-392.622,-99.085
0.745,0.636,0.525,-32.805,-311.463,-68.841
0.863,0.745,0.464,-36.098,-241.524,-45.915
0.895,0.78,0.398,-46.524,-184.634,-32.134
0.779,0.78,0.338,-57.256,-146.646,-22.927
0.638,0.776,0.266,-64.695,-132.561,-19.573
0.569,0.735,0.27,-64.634,-126.707,-18.963
0.619,0.668,0.316,-61.341,-119.756,-15.915
0.655,0.663,0.337,-59.268,-115.0,-12.317
0.638,0.723,0.347,-59.573,-114.085,-12.317
0.658,0.727,0.374,-57.866,-108.902,-13.415
0.726,0.676,0.417,-55.122,-97.195,-11.22
0.756,0.649,0.455,-51.829,-82.988,-7.988
0.694,0.664,0.431,-50.549,-70.61,-8.232
0.643,0.643,0.423,-46.098,-65.793,-10.061
0.601,0.585,0.41,-37.195,-66.768,-8.963
0.547,0.571,0.381,-30.244,-71.159,-6.463
0.525,0.602,0.353,-25.976,-74.146,-7.012
0.559,0.622,0.32,-24.756,-69.634,-5.671
0.629,0.641,0.301,-27.195,-56.341,0.244
0.696,0.663,0.314,-32.439,-34.451,6.098
0.756,0.662,0.355,-38.902,-11.402,9.756
0.737,0.643,0.375,-43.963,1.098,12.134
0.643,0.612,0.375,-43.293,1.341,13.293
0.648,0.579,0.411,-37.927,0.061,13.171
0.733,0.57,0.456,-34.268,3.963,10.793
0.78,0.571,0.483,-32.195,9.207,9.817
0.749,0.562,0.5,-26.585,9.695,10.854
0.693,0.567,0.501,-23.354,6.341,10.183
0.646,0.596,0.48,-22.439,1.159,9.329
0.626,0.622,0.452,-22.866,-5.671,7.622
0.621,0.611,0.426,-21.646,-13.171,6.159
0.655,0.583,0.442,-21.037,-15.305,7.805
0.697,0.588,0.457,-22.012,-11.22,10.0
0.728,0.594,0.448,-23.049,-3.598,11.646
0.762,0.568,0.455,-23.293,5.122,14.939
0.78,0.543,0.424,-21.89,8.293,17.866
0.699,0.553,0.397,-19.268,7.988,16.707
0.669,0.539,0.392,-15.0,7.134,12.622
0.668,0.521,0.369,-12.622,7.378,11.098
0.618,0.534,0.377,-10.732,8.476,9.085
0.551,0.538,0.407,-5.61,8.963,4.573
0.524,0.525,0.386,0.854,8.049,2.195
0.52,0.539,0.346,5.61,8.11,2.195
0.531,0.576,0.292,7.988,10.976,2.988
0.572,0.591,0.288,7.744,20.549,4.207
0.594,0.571,0.298,7.744,39.024,6.829
0.619,0.554,0.266,10.854,57.256,9.878
0.644,0.558,0.26,10.427,68.963,11.768
0.574,0.583,0.289,8.963,69.451,10.305
0.486,0.59,0.305,13.78,58.598,5.793
0.493,0.56,0.331,24.085,51.524,3.598
0.616,0.522,0.364,35.061,55.183,5.122
0.705,0.533,0.397,42.5,71.22,7.134
0.723,0.564,0.464,42.561,93.171,8.476
0.621,0.595,0.506,36.768,115.183,12.012
0.489,0.612,0.477,37.195,131.829,14.817
0.575,0.585,0.394,42.073,142.622,19.451
0.688,0.564,0.437,43.171,160.061,27.561
0.689,0.579,0.508,43.293,179.573,33.78
0.649,0.623,0.49,43.659,187.683,36.098
0.553,0.646,0.46,44.634,184.39,36.707
0.479,0.673,0.472,42.866,171.585,36.829
0.414,0.701,0.517,37.378,158.598,36.768
0.39,0.704,0.59,30.427,152.561,37.683
0.419,0.691,0.692,22.378,154.817,40.976
0.443,0.67,0.771,22.012,166.524,44.207
0.616,0.587,0.858,33.902,189.024,48.171
0.815,0.504,0.993,47.256,225.305,57.622
0.789,0.493,1.008,59.085,262.683,68.963
0.678,0.519,0.916,71.951,292.378,78.293
0.617,0.558,0.851,80.854,319.634,88.659
0.542,0.624,0.826,73.415,330.244,93.78
0.262,0.738,0.721,47.744,284.085,84.268
-0.206,0.841,0.585,22.378,177.683,57.195
-0.375,0.832,0.563,8.293,63.354,24.207
-0.011,0.697,0.622,3.049,7.439,11.707
0.51,0.626,0.761,-3.78,29.756,18.598
0.665,0.648,0.842,-13.171,85.915,25.488
0.454,0.645,0.843,-15.671,127.134,25.549
0.215,0.619,0.858,-15.671,136.524,23.293
0.023,0.61,0.958,-23.963,116.402,12.866
-0.134,0.566,1.086,-31.646,51.89,-11.402
-0.292,0.495,1.09,-33.232,-50.915,-41.951
-0.359,0.43,1.067,-26.585,-160.488,-79.268
-0.126,0.354,0.945,-11.585,-245.671,-106.585
0.256,0.359,0.833,3.537,-284.268,-119.634
0.544,0.413,0.807,16.829,-276.951,-125.183
0.648,0.47,0.825,28.841,-235.976,-126.28
0.606,0.51,0.811,43.537,-182.805,-123.293
0.488,0.652,0.555,48.902,-150.122,-107.195
0.092,0.859,0.285,44.207,-140.976,-81.585
-0.32,1.048,0.054,29.634,-138.78,-57.561
-0.356,1.169,-0.321,-1.22,-138.293,-29.024
-0.181,1.227,-0.324,-46.646,-113.963,3.232
0.132,1.154,-0.059,-86.098,-67.805,38.537
0.512,0.971,0.086,-115.183,-23.72,70.915
0.762,0.864,0.319,-138.171,11.341,84.878
0.999,0.632,0.855,-126.402,43.354,73.841
1.153,0.172,1.341,-79.39,72.988,62.012
0.966,-0.103,1.568,-46.646,80.61,60.183
0.53,-0.089,1.587,-22.561,53.11,48.902
0.233,0.081,1.23,-3.902,0.915,25.305
0.274,0.283,0.927,-0.549,-36.402,1.341
0.565,0.371,0.952,-10.0,-49.451,-23.049
0.662,0.353,0.994,-19.695,-64.329,-47.744
0.472,0.346,0.95,-27.012,-109.085,-73.659
0.301,0.394,0.865,-25.671,-187.012,-107.805
0.296,0.462,0.757,-11.89,-263.72,-145.671
0.476,0.553,0.628,6.646,-304.756,-172.622
0.673,0.662,0.543,16.098,-303.415,-178.963
0.678,0.801,0.468,11.524,-272.683,-164.39
0.436,0.905,0.482,-2.683,-222.5,-133.659
0.173,0.854,0.502,-9.573,-158.963,-90.732
0.075,0.719,0.469,-9.756,-87.195,-42.073
0.198,0.648,0.528,-4.817,-22.683,-2.866
0.396,0.654,0.589,-1.89,21.707,17.866
0.42,0.676,0.568,-1.951,38.232,24.817
0.417,0.637,0.528,4.512,32.195,24.085
0.573,0.58,0.52,13.537,24.573,22.195
0.735,0.587,0.521,12.805,25.915,21.28
0.721,0.639,0.514,5.854,27.378,17.866
0.605,0.628,0.505,2.927,20.366,15.122
0.52,0.585,0.501,3.598,9.39,15.0
0.511,0.579,0.546,4.329,3.659,15.732
0.504,0.603,0.645,1.768,5.61,17.561
0.497,0.598,0.719,2.439,6.951,18.963
0.544,0.554,0.751,8.415,10.305,19.878
0.628,0.516,0.768,16.646,20.671,23.902
0.662,0.537,0.77,21.098,37.256,29.024
0.665,0.582,0.72,24.024,52.988,32.439
0.673,0.594,0.667,28.11,71.28,37.927
0.723,0.593,0.669,32.805,99.329,47.256
0.803,0.597,0.704,33.902,139.085,57.988
0.837,0.581,0.763,34.939,184.512,70.61
0.787,0.56,0.772,37.378,229.939,84.817
0.69,0.572,0.685,39.512,264.207,98.902
0.566,0.608,0.628,41.646,289.634,107.256
0.484,0.606,0.595,43.232,305.0,108.78
0.427,0.565,0.58,47.256,307.5,107.5
0.386,0.513,0.571,54.085,298.902,105.0
0.401,0.49,0.578,61.89,287.439,101.037
0.478,0.502,0.616,69.634,283.049,98.537
0.541,0.542,0.615,75.183,283.293,98.659
0.505,0.571,0.609,82.256,288.78,94.817
0.481,0.594,0.638,85.488,304.817,94.39
0.425,0.649,0.59,79.512,313.537,102.622
0.285,0.7,0.495,74.268,297.622,104.573
0.123,0.767,0.424,64.146,265.427,96.585
0.03,0.818,0.41,51.585,222.012,82.378
0.018,0.825,0.429,42.073,179.634,68.415
0.078,0.775,0.506,36.402,156.829,59.512
0.166,0.696,0.583,35.671,151.524,57.561
0.186,0.629,0.654,41.585,161.341,62.317
0.189,0.628,0.689,47.195,180.61,70.488
0.201,0.626,0.71,56.098,214.634,79.878
0.264,0.65,0.81,60.183,265.183,86.037
0.233,0.664,0.892,58.171,305.305,87.317
-0.048,0.673,0.918,51.768,314.39,82.866
-0.323,0.686,0.824,47.866,286.646,75.061
-0.455,0.701,0.666,45.549,235.488,69.634
-0.483,0.758,0.63,38.659,182.5,57.561
-0.457,0.787,0.586,29.756,123.537,41.28
-0.515,0.796,0.562,18.72,55.793,25.183
-0.564,0.808,0.539,7.378,-14.329,7.5
-0.522,0.814,0.556,-3.902,-77.134,-10.549
-0.44,0.789,0.557,-14.695,-128.902,-24.695
-0.431,0.712,0.56,-21.524,-171.829,-35.244
-0.489,0.621,0.585,-20.488,-206.646,-45.122
-0.45,0.61,0.598,-18.537,-227.683,-55.0
-0.362,0.608,0.625,-17.439,-242.195,-60.732
-0.304,0.602,0.656,-18.11,-256.341,-64.39
-0.237,0.631,0.64,-20.976,-270.976,-70.854
-0.198,0.658,0.622,-22.378,-285.305,-80.854
-0.162,0.655,0.632,-21.402,-297.317,-88.293
-0.058,0.665,0.658,-22.378,-300.915,-87.134
0.115,0.721,0.745,-27.927,-286.829,-82.622
0.262,0.71,0.808,-27.256,-256.951,-76.463
0.224,0.667,0.845,-21.22,-216.28,-67.134
0.163,0.671,0.865,-12.256,-168.293,-60.061
0.244,0.687,0.841,-5.976,-113.659,-51.098
0.317,0.703,0.831,-4.695,-59.817,-40.915
0.254,0.739,0.731,-6.159,-25.305,-33.476
0.159,0.805,0.646,-13.232,-16.585,-31.22
0.114,0.834,0.636,-22.744,-23.415,-36.037
0.093,0.792,0.636,-27.683,-34.451,-41.768
0.129,0.746,0.643,-29.146,-41.098,-46.098
0.212,0.736,0.708,-29.878,-36.098,-51.037
0.296,0.721,0.753,-30.671,-22.134,-51.341
0.34,0.729,0.746,-31.524,-1.159,-45.549
0.357,0.753,0.76,-34.634,23.171,-40.732
0.326,0.731,0.742,-37.683,41.951,-35.976
0.245,0.71,0.726,-38.72,53.598,-33.537
0.23,0.716,0.738,-40.0,63.11,-35.183
0.28,0.691,0.729,-39.939,72.256,-34.512
0.286,0.692,0.707,-39.146,79.695,-31.585
0.232,0.725,0.691,-38.049,80.793,-34.39
0.168,0.721,0.688,-36.098,75.305,-36.402
0.133,0.691,0.697,-33.963,71.707,-34.939
0.102,0.661,0.719,-30.122,70.61,-34.573
0.021,0.67,0.688,-27.988,64.451,-32.805
-0.092,0.699,0.63,-27.561,51.951,-32.073
-0.104,0.692,0.636,-26.646,43.11,-32.134
0.005,0.661,0.689,-25.305,42.622,-29.817
0.041,0.645,0.682,-24.085,42.622,-26.951
-0.039,0.652,0.67,-23.659,36.22,-28.902
-0.085,0.653,0.663,-23.659,24.512,-30.793
-0.105,0.63,0.641,-21.951,11.341,-30.976
-0.117,0.613,0.635,-19.268,-1.524,-30.488
-0.116,0.643,0.661,-19.939,-11.098,-30.305
-0.116,0.648,0.684,-21.951,-18.598,-31.341
-0.111,0.61,0.688,-22.378,-27.622,-32.317
-0.102,0.587,0.679,-21.829,-38.902,-34.085
-0.046,0.602,0.685,-22.317,-51.098,-34.939
-0.046,0.633,0.7,-23.415,-65.915,-35.854
-0.09,0.646,0.714,-25.915,-82.439,-38.11
-0.063,0.624,0.736,-26.22,-92.317,-37.927
0.017,0.624,0.804,-25.915,-90.61,-33.963
0.021,0.613,0.828,-24.512,-81.707,-31.402
0.025,0.571,0.812,-22.012,-75.427,-30.122
0.043,0.581,0.768,-21.098,-77.744,-29.634
-0.036,0.603,0.706,-20.549,-97.5,-32.561
-0.145,0.632,0.645,-21.768,-131.037,-39.207
-0.204,0.624,0.589,-18.171,-172.561,-46.463
-0.188,0.612,0.574,-13.963,-210.366,-50.854
0.001,0.612,0.631,-15.122,-223.049,-47.927
0.207,0.581,0.703,-16.22,-210.488,-41.585
0.351,0.57,0.771,-17.378,-184.268,-35.061
0.462,0.561,0.815,-17.5,-156.037,-26.89
0.467,0.566,0.839,-15.854,-135.183,-20.915
0.404,0.575,0.836,-12.378,-125.427,-19.512
0.391,0.526,0.835,-5.427,-118.902,-17.805
0.49,0.503,0.856,0.366,-99.268,-12.561
0.629,0.493,0.893,5.122,-64.939,-5.305
0.655,0.499,0.902,7.744,-28.415,1.098
0.577,0.556,0.902,5.976,-0.732,6.22
0.44,0.579,0.849,3.354,13.11,9.39
0.347,0.575,0.791,2.134,20.0,12.134
0.354,0.559,0.741,1.585,27.866,15.366
0.304,0.555,0.698,1.22,33.11,15.915
0.257,0.574,0.651,-1.524,32.988,17.195
0.275,0.582,0.61,-4.085,33.049,19.39
0.308,0.582,0.593,-5.915,36.89,21.037
0.339,0.571,0.619,-6.951,44.024,22.805
0.361,0.55,0.69,-9.146,49.512,20.854
0.298,0.532,0.782,-11.159,51.585,13.659
0.248,0.505,0.808,-13.354,48.293,5.915
0.217,0.476,0.772,-13.293,39.085,-1.22
0.134,0.47,0.726,-10.183,20.305,-10.0
0.031,0.498,0.674,-7.683,-9.085,-18.354
-0.019,0.531,0.646,-5.976,-40.793,-28.415
-0.063,0.553,0.644,-4.878,-77.012,-38.11
-0.132,0.572,0.616,-4.817,-121.524,-47.5
-0.164,0.577,0.563,-5.366,-172.866,-56.22
-0.18,0.576,0.476,-4.695,-226.22,-65.732
-0.142,0.594,0.393,-4.573,-276.037,-73.902
0.015,0.604,0.388,-7.195,-307.256,-78.293
0.326,0.586,0.421,-9.512,-311.707,-79.146
0.546,0.576,0.411,-11.829,-301.707,-77.744
0.633,0.577,0.392,-13.78,-288.171,-71.89
0.749,0.595,0.396,-18.171,-272.866,-66.159
0.798,0.623,0.382,-24.512,-259.207,-63.537
0.763,0.625,0.383,-28.415,-247.439,-61.707
0.772,0.611,0.429,-30.488,-236.159,-58.232
0.778,0.608,0.464,-30.427,-221.28,-54.817
0.804,0.624,0.507,-31.402,-202.744,-49.39
0.841,0.6,0.588,-30.305,-174.512,-42.988
0.852,0.571,0.636,-28.78,-141.829,-37.866
0.755,0.574,0.597,-26.89,-118.232,-30.427
0.621,0.578,0.543,-20.061,-102.561,-24.39
0.652,0.577,0.517,-13.902,-83.902,-20.671
0.771,0.598,0.491,-12.378,-59.695,-14.756
0.839,0.622,0.461,-11.646,-38.11,-7.195
0.856,0.637,0.479,-11.037,-19.573,-3.963
0.857,0.593,0.53,-6.951,0.671,0.915
0.924,0.565,0.593,-2.5,25.915,7.744
0.941,0.581,0.606,-0.366,53.659,12.073
0.852,0.601,0.612,3.963,81.28,14.573
0.81,0.564,0.64,11.22,116.341,19.085
0.9,0.515,0.669,18.171,159.939,28.354
0.975,0.509,0.687,25.671,210.122,41.585
0.985,0.538,0.678,32.073,262.744,55.183
0.979,0.577,0.664,35.366,310.244,67.866
0.879,0.589,0.625,38.11,345.854,77.988
0.746,0.616,0.579,40.61,367.927,84.756
0.669,0.672,0.539,39.085,382.866,87.988
0.611,0.703,0.509,35.305,389.329,85.244
0.535,0.721,0.458,28.415,381.646,79.878
0.386,0.727,0.469,21.768,362.561,75.671
0.214,0.708,0.506,18.354,336.463,72.622
0.122,0.675,0.538,19.329,317.622,71.037
0.183,0.657,0.585,20.366,313.72,74.329
0.293,0.651,0.604,19.39,324.634,82.073
0.314,0.646,0.565,19.085,341.159,87.073
0.278,0.662,0.544,15.488,350.366,90.305
0.122,0.664,0.557,13.963,338.049,85.61
-0.15,0.609,0.605,17.866,303.659,76.28
-0.265,0.583,0.708,20.976,274.817,72.5
-0.116,0.602,0.764,21.707,265.427,71.768
0.083,0.611,0.738,22.317,275.976,74.085
0.148,0.622,0.669,22.378,295.366,79.817
0.119,0.646,0.591,21.22,316.89,83.659
0.109,0.665,0.53,17.805,335.732,85.061
0.041,0.659,0.488,12.622,339.268,82.866
-0.217,0.635,0.588,5.976,321.524,68.293
-0.527,0.616,0.608,2.134,283.354,53.537
-0.684,0.605,0.532,1.463,233.232,45.671
-0.765,0.625,0.49,6.037,184.695,39.817
-0.673,0.675,0.556,4.573,164.573,37.073
-0.452,0.664,0.6,5.0,169.817,37.561
-0.32,0.652,0.587,6.098,179.085,43.659
-0.285,0.705,0.579,3.902,190.305,45.793
-0.26,0.728,0.616,-3.232,205.854,43.171
-0.305,0.667,0.619,-4.573,213.354,41.037
-0.458,0.623,0.645,-7.256,198.902,35.366
-0.712,0.646,0.559,-7.683,163.354,23.11
-0.82,0.686,0.473,-8.659,125.0,17.439
-0.795,0.689,0.505,-9.695,97.256,13.476
-0.717,0.675,0.548,-9.756,83.049,9.268
-0.673,0.665,0.547,-8.659,77.134,7.317
-0.693,0.647,0.527,-5.488,68.537,3.963
-0.815,0.603,0.525,-2.012,43.902,-4.39
-1.03,0.589,0.555,-3.476,-8.293,-21.341
-1.178,0.616,0.497,-10.0,-87.012,-37.439
-1.286,0.636,0.359,-14.878,-182.439,-51.707
-1.344,0.651,0.271,-18.11,-280.549,-67.134
-1.201,0.684,0.246,-24.024,-366.28,-84.39
-1.0,0.671,0.188,-27.195,-435.732,-95.793
-0.843,0.652,0.134,-31.585,-493.598,-99.878
-0.706,0.688,0.2,-44.085,-540.122,-107.256
-0.541,0.71,0.27,-61.159,-579.878,-122.561
-0.39,0.656,0.299,-67.195,-623.476,-134.024
-0.212,0.685,0.335,-81.768,-664.207,-138.659
0.031,0.728,0.359,-96.28,-682.622,-139.024
0.35,0.671,0.367,-100.793,-678.232,-140.122
0.568,0.601,0.398,-101.22,-653.72,-142.012
0.666,0.585,0.452,-105.976,-618.537,-141.037
0.674,0.608,0.464,-116.037,-586.89,-131.22
0.646,0.62,0.499,-123.171,-559.146,-121.159
0.706,0.576,0.558,-119.329,-529.207,-119.085
0.916,0.472,0.64,-107.195,-484.207,-115.61
1.086,0.392,0.723,-97.805,-424.573,-102.866
1.04,0.407,0.716,-94.573,-377.317,-86.463
0.847,0.483,0.568,-85.915,-354.207,-76.037
0.766,0.514,0.468,-73.171,-335.183,-70.122
0.895,0.492,0.428,-63.537,-302.378,-61.098
1.043,0.471,0.449,-61.646,-260.0,-48.171
1.011,0.458,0.434,-58.78,-220.671,-36.159
0.888,0.437,0.375,-51.341,-193.537,-26.951
0.826,0.44,0.299,-46.951,-179.634,-17.195
0.806,0.498,0.23,-46.22,-172.439,-10.671
0.83,0.512,0.191,-42.927,-165.061,-7.988
0.949,0.478,0.185,-40.488,-152.561,-4.634
1.031,0.469,0.214,-42.805,-132.744,-1.037
0.951,0.485,0.275,-47.378,-112.317,-0.61
0.828,0.448,0.266,-44.634,-104.268,-0.488
0.755,0.427,0.256,-38.11,-101.646,0.061
0.742,0.432,0.318,-35.0,-93.841,2.256
0.756,0.429,0.359,-30.671,-83.78,2.317
0.792,0.401,0.372,-22.073,-72.988,2.683
0.872,0.354,0.383,-12.317,-58.72,7.317
0.885,0.37,0.382,-9.695,-43.598,11.098
0.816,0.411,0.34,-7.866,-34.878,10.122
0.77,0.415,0.316,-5.732,-30.122,9.634
0.799,0.363,0.356,-6.037,-24.207,10.488
0.819,0.354,0.392,-4.512,-18.841,12.134
0.848,0.362,0.375,-1.402,-13.78,10.793
0.873,0.336,0.39,1.585,-6.89,12.5
0.904,0.288,0.445,8.72,2.195,15.732
0.955,0.257,0.502,17.561,16.89,18.963
0.98,0.263,0.477,21.707,30.244,24.512
0.955,0.317,0.37,21.829,33.963,27.805
0.926,0.38,0.298,19.634,33.537,25.488
0.904,0.403,0.292,14.634,35.061,22.378
0.852,0.401,0.331,10.305,31.28,16.829
0.77,0.35,0.354,15.793,16.524,11.951
0.807,0.293,0.369,29.573,3.049,12.866
0.954,0.322,0.41,38.598,10.305,17.256
1.075,0.397,0.403,40.732,33.293,21.829
1.133,0.429,0.382,43.415,63.171,27.073
1.174,0.402,0.377,46.402,95.61,35.183
1.14,0.417,0.362,45.549,121.89,42.561
1.0,0.463,0.313,41.463,130.976,45.244
0.799,0.497,0.251,36.402,118.476,43.537
0.636,0.505,0.206,34.207,89.451,38.476
0.613,0.491,0.222,33.415,64.024,31.646
0.776,0.445,0.254,34.39,60.061,27.927
1.034,0.394,0.301,36.829,84.695,28.354
1.228,0.352,0.391,39.695,133.049,34.817
1.26,0.321,0.445,42.744,191.402,48.659
1.174,0.298,0.433,46.28,242.439,63.171
1.024,0.305,0.422,48.841,274.451,74.146
0.815,0.323,0.399,51.22,281.037,78.232
0.614,0.339,0.386,54.39,265.61,73.049
0.493,0.325,0.349,55.244,238.659,65.0
0.45,0.326,0.321,52.439,210.0,56.341
0.482,0.35,0.346,47.439,188.415,46.829
0.592,0.345,0.408,42.378,181.341,41.402
0.685,0.302,0.48,39.634,190.0,42.073
0.705,0.295,0.555,34.756,208.963,44.695
0.655,0.323,0.625,28.232,220.061,44.268
0.534,0.342,0.618,19.878,209.207,43.78
0.342,0.396,0.559,7.073,173.841,38.902
0.131,0.448,0.543,-6.89,118.72,25.549
0.013,0.442,0.582,-17.195,58.232,9.268
0.078,0.39,0.627,-21.829,6.829,-2.988
0.268,0.354,0.685,-25.122,-24.634,-9.146
0.482,0.358,0.766,-27.256,-34.207,-9.695
0.654,0.375,0.862,-27.439,-24.817,-7.256
0.789,0.368,0.918,-25.61,-2.561,-2.561
0.824,0.34,0.916,-22.805,23.232,9.512
0.743,0.327,0.899,-17.622,44.756,22.744
0.654,0.353,0.897,-12.317,55.671,27.988
0.569,0.376,0.9,-7.561,54.634,26.707
0.475,0.369,0.88,-4.207,39.512,23.171
0.409,0.333,0.851,1.707,18.963,21.28
0.443,0.309,0.828,7.5,6.037,22.012
0.55,0.305,0.828,10.366,9.756,26.89
0.651,0.295,0.843,12.012,28.415,33.293
0.656,0.279,0.823,12.622,53.049,41.646
0.592,0.262,0.793,14.939,80.732,51.098
0.567,0.236,0.789,19.939,114.146,57.195
0.638,0.202,0.809,28.476,150.549,61.585
0.724,0.159,0.855,39.695,195.183,69.268
0.783,0.125,0.884,52.134,247.927,76.585
0.822,0.114,0.861,68.11,297.927,83.415
0.817,0.125,0.859,85.0,347.744,96.037
0.768,0.171,0.836,98.902,400.671,109.695
0.648,0.228,0.728,110.732,448.049,120.122
0.479,0.309,0.602,120.183,482.195,124.268
0.32,0.399,0.512,123.963,505.0,124.634
0.197,0.476,0.464,122.927,525.0,121.585
0.166,0.556,0.457,112.988,542.439,116.768
0.08,0.629,0.493,86.585,542.5,114.939
-0.307,0.635,0.51,56.463,512.317,112.622
-0.738,0.584,0.483,44.695,450.915,113.963
-0.899,0.534,0.536,38.171,371.341,107.317
-0.93,0.453,0.57,51.037,296.646,93.659
-0.812,0.486,0.66,38.049,264.695,83.902
-0.575,0.554,0.681,19.878,243.476,70.244
-0.63,0.529,0.637,19.085,197.378,71.585
-0.753,0.564,0.679,13.537,153.476,63.78
-0.702,0.584,0.729,0.732,125.488,48.293
-0.621,0.51,0.721,-3.354,101.159,39.268
-0.614,0.452,0.724,-1.646,76.524,28.537
-0.681,0.423,0.699,0.549,48.841,16.646
-0.795,0.43,0.653,0.427,9.939,0.366
-0.909,0.456,0.647,-4.573,-46.22,-22.622
-0.947,0.477,0.576,-13.293,-120.976,-46.829
-0.999,0.493,0.469,-21.159,-210.183,-69.573
-1.049,0.535,0.364,-33.293,-307.988,-88.78
-1.053,0.584,0.182,-42.073,-411.463,-104.756
-0.979,0.593,0.052,-41.585,-514.39,-117.988
-0.817,0.625,0.094,-47.683,-606.646,-127.805
-0.507,0.661,0.201,-77.683,-675.183,-134.512
-0.101,0.689,0.375,-124.878,-700.976,-144.817
0.343,0.526,0.45,-116.159,-678.902,-156.463
0.775,0.365,0.716,-89.512,-595.061,-155.915
1.078,0.245,1.013,-65.61,-461.037,-139.085
1.041,0.133,1.237,-42.378,-316.341,-108.72
0.728,0.112,1.292,-23.232,-207.134,-72.805
0.351,0.178,1.185,-9.146,-149.695,-41.037
0.102,0.275,1.037,2.988,-119.207,-23.354
0.126,0.357,0.967,12.256,-89.146,-17.927
0.352,0.4,0.993,14.024,-50.122,-17.195
0.534,0.381,0.948,11.22,-13.902,-9.878
0.545,0.349,0.88,10.488,8.841,1.646
0.473,0.369,0.808,11.098,19.024,8.476
0.488,0.431,0.768,8.293,25.488,8.354
0.603,0.472,0.776,2.317,31.89,5.915
0.638,0.439,0.813,-1.463,40.183,8.598
0.569,0.361,0.853,1.037,49.695,14.085
0.514,0.292,0.83,11.89,53.293,20.122
0.441,0.274,0.837,23.78,61.646,28.293
0.4,0.304,0.847,32.927,80.488,33.78
0.409,0.332,0.782,40.671,103.963,41.22
0.406,0.333,0.73,48.659,127.134,53.902
0.411,0.327,0.71,57.317,147.927,66.646
0.379,0.323,0.68,65.61,166.646,76.768
