acc_x_axis_g,acc_y_axis_g,acc_z_axis_g,gyr_x_axis_deg/s,gyr_y_axis_deg/s,gyr_z_axis_deg/s
0.107,0.96,0.38,4.573,36.829,46.707
0.068,0.954,0.357,7.683,50.366,42.378
0.094,0.948,0.367,12.805,69.024,39.695
0.129,0.946,0.367,20.183,85.0,38.293
0.094,0.959,0.353,26.22,90.915,37.256
0.096,0.962,0.345,30.183,89.329,36.89
0.15,0.938,0.348,32.012,81.28,35.854
0.228,0.913,0.369,31.037,66.402,35.976
0.313,0.889,0.389,28.171,51.159,38.354
0.355,0.844,0.372,24.207,36.159,40.244
0.347,0.852,0.292,20.549,22.378,41.768
0.285,0.889,0.223,18.537,15.61,44.451
0.263,0.918,0.199,17.012,9.695,47.439
0.255,0.922,0.194,15.488,0.427,50.122
0.272,0.907,0.211,16.707,-7.5,52.866
0.303,0.896,0.229,20.732,-10.793,51.89
0.293,0.903,0.256,24.695,-7.866,46.89
0.271,0.911,0.271,26.768,-1.768,41.524
0.245,0.906,0.31,25.854,2.317,36.89
0.208,0.904,0.35,20.732,-2.012,33.415
0.21,0.898,0.37,11.585,-16.28,31.098
0.216,0.93,0.363,1.829,-30.549,29.573
0.211,0.945,0.346,-3.963,-35.427,29.329
0.191,0.912,0.294,-3.293,-28.902,29.451
0.193,0.878,0.251,0.854,-16.646,29.268
0.254,0.892,0.238,4.756,-4.573,29.329
0.22,0.872,0.217,8.72,7.866,29.268
0.229,0.84,0.208,12.683,20.0,27.927
0.267,0.81,0.212,16.402,29.207,25.427
0.263,0.79,0.228,18.415,34.817,22.988
0.277,0.783,0.194,18.293,31.829,20.305
0.29,0.771,0.11,16.159,22.683,18.171
0.271,0.76,0.043,12.012,12.195,18.354
0.259,0.744,0.037,9.878,4.024,19.573
0.278,0.74,0.066,8.354,-2.927,18.354
0.29,0.736,0.095,7.134,-8.598,17.866
0.294,0.717,0.134,8.72,-9.329,17.561
0.314,0.706,0.161,12.744,-7.134,15.061
0.288,0.716,0.153,16.098,-3.476,11.037
0.273,0.722,0.121,17.927,3.598,6.037
0.28,0.744,0.086,17.805,10.305,1.28
0.206,0.801,0.054,17.439,13.232,-1.402
0.121,0.881,0.037,17.5,15.549,-3.171
0.078,0.982,0.016,16.341,17.378,-5.793
-0.012,1.048,0.048,14.939,15.366,-9.329
0.009,1.055,0.098,15.366,10.61,-13.354
0.063,1.036,0.112,16.28,3.902,-18.476
0.091,1.039,0.166,18.78,0.0,-23.659
0.163,1.021,0.235,22.073,6.22,-27.683
0.262,0.989,0.273,23.72,23.78,-31.524
0.338,0.96,0.282,23.72,44.329,-34.207
0.356,0.953,0.274,23.476,60.915,-34.146
0.354,0.974,0.273,25.854,72.073,-32.012
0.336,1.013,0.288,30.0,82.744,-27.439
0.311,1.078,0.292,37.378,91.829,-20.732
0.277,1.122,0.283,45.305,92.561,-16.707
0.27,1.12,0.264,47.317,83.963,-14.939
0.221,1.138,0.239,44.451,70.244,-14.329
0.161,1.184,0.253,39.39,57.256,-14.634
0.161,1.217,0.294,34.268,46.341,-15.793
0.164,1.218,0.306,28.78,35.061,-16.585
0.141,1.181,0.304,23.598,25.244,-16.646
0.098,1.158,0.331,18.659,18.232,-16.341
0.066,1.164,0.37,15.244,14.756,-15.427
0.088,1.144,0.402,15.122,18.72,-13.11
0.109,1.101,0.405,16.037,26.585,-9.268
0.107,1.062,0.364,15.061,29.329,-4.756
0.117,1.024,0.318,11.768,27.317,0.122
0.151,1.004,0.255,7.317,23.902,5.427
0.188,0.981,0.16,4.573,19.451,10.549
0.291,0.921,0.108,4.268,14.756,15.061
0.426,0.884,0.147,0.854,5.366,17.927
0.391,0.838,0.179,-5.671,-11.22,19.817
0.343,0.79,0.228,-11.037,-29.878,23.415
0.371,0.799,0.256,-13.659,-46.463,26.707
0.308,0.808,0.225,-16.22,-61.829,29.756
0.211,0.817,0.186,-22.073,-75.183,33.171
0.14,0.87,0.153,-28.902,-86.402,36.037
0.095,0.925,0.121,-32.195,-91.707,37.988
0.112,0.93,0.101,-30.0,-79.512,38.537
0.135,0.911,0.1,-24.085,-58.049,31.341
0.158,0.893,0.119,-19.39,-47.317,24.573
0.185,0.878,0.133,-16.951,-39.207,19.634
0.228,0.869,0.136,-17.622,-35.061,12.317
0.262,0.833,0.104,-17.927,-41.159,7.561
0.281,0.826,0.061,-18.293,-52.622,4.573
0.298,0.809,0.009,-19.878,-64.756,2.622
0.306,0.778,-0.036,-19.634,-71.159,2.5
0.281,0.764,-0.047,-17.256,-68.293,3.476
0.24,0.773,-0.022,-13.902,-60.061,4.329
0.221,0.79,0.022,-10.793,-52.683,4.634
0.217,0.772,0.051,-8.171,-46.341,4.085
0.227,0.771,0.045,-4.268,-39.512,2.134
0.239,0.793,0.012,-1.707,-34.085,0.732
0.329,0.768,-0.014,0.244,-28.232,-0.671
0.378,0.803,-0.068,1.341,-20.427,-3.354
0.327,0.856,-0.071,1.098,-14.024,-5.732
0.294,0.874,-0.021,-0.061,-14.695,-8.72
0.307,0.901,0.056,-0.793,-21.829,-12.988
0.265,0.945,0.096,0.122,-27.866,-15.122
0.15,0.979,0.095,6.28,-30.732,-16.463
0.108,1.039,0.099,8.72,-29.878,-17.317
0.169,1.056,0.108,12.561,-24.085,-19.085
0.257,1.045,0.121,17.256,-8.537,-19.756
0.252,1.054,0.183,22.866,7.439,-20.305
0.241,1.06,0.236,28.78,15.549,-24.024
0.372,1.02,0.263,31.89,22.927,-27.073
0.401,0.994,0.256,32.805,33.72,-29.024
0.29,1.013,0.223,32.805,42.927,-29.085
0.216,1.073,0.17,32.744,46.098,-26.159
0.179,1.1,0.115,34.268,49.268,-21.28
0.155,1.123,0.084,37.927,57.378,-16.463
0.166,1.159,0.076,40.976,64.756,-12.5
0.149,1.203,0.083,39.329,61.341,-9.634
0.132,1.212,0.119,38.963,55.061,-8.415
0.157,1.175,0.15,39.878,56.402,-8.78
0.193,1.127,0.186,36.463,56.28,-11.037
0.206,1.094,0.232,27.744,48.171,-12.744
0.226,1.081,0.237,19.268,36.768,-11.646
0.224,1.07,0.223,13.171,25.61,-10.671
0.204,1.061,0.205,8.902,18.72,-8.293
0.204,1.078,0.175,4.939,17.988,-4.817
0.181,1.075,0.173,2.012,18.659,-0.183
0.203,1.035,0.222,1.89,19.878,5.366
0.259,0.988,0.24,2.927,23.841,10.488
0.264,0.947,0.206,1.22,27.012,13.11
0.261,0.902,0.174,-2.073,26.829,15.61
0.271,0.857,0.146,-5.183,21.585,18.902
0.261,0.841,0.12,-8.232,9.451,22.439
0.265,0.842,0.106,-10.366,-4.085,26.524
0.295,0.843,0.109,-10.122,-15.488,26.951
0.256,0.858,0.095,-10.0,-26.463,24.939
0.261,0.883,0.031,-10.671,-28.11,23.841
0.308,0.89,0.044,-10.183,-20.793,21.89
0.27,0.913,0.079,-10.061,-13.72,18.415
0.209,0.926,0.08,-11.28,-8.415,13.963
0.25,0.914,0.106,-13.049,-7.134,9.329
0.225,0.912,0.127,-16.098,-13.659,5.305
0.192,0.9,0.126,-20.549,-27.073,2.134
0.219,0.88,0.138,-26.22,-40.61,0.122
0.257,0.857,0.138,-32.439,-52.195,0.427
0.298,0.842,0.098,-30.793,-56.646,2.439
0.315,0.829,0.067,-24.573,-49.573,1.951
0.312,0.822,0.066,-21.463,-36.22,1.829
0.293,0.838,0.087,-18.171,-24.512,5.122
0.269,0.856,0.123,-14.024,-10.915,6.463
0.259,0.871,0.146,-9.817,-4.39,6.829
0.247,0.895,0.147,-5.915,-8.902,6.159
0.248,0.916,0.151,-2.805,-20.305,4.695
0.243,0.934,0.108,-0.976,-32.988,3.902
0.225,0.943,0.045,-0.915,-45.305,2.561
0.225,0.942,0.006,-1.402,-59.207,0.061
0.26,0.958,-0.022,-2.439,-72.5,-2.012
0.275,0.993,-0.045,-3.232,-80.915,-3.293
0.252,1.018,-0.051,-3.232,-83.659,-4.817
0.218,1.024,-0.045,-1.585,-81.646,-6.829
0.237,1.009,-0.034,3.293,-72.439,-7.439
0.267,0.98,-0.005,9.024,-57.927,-6.707
0.251,0.966,0.024,12.5,-43.72,-5.427
0.237,0.954,0.048,14.268,-32.561,-5.0
0.241,0.958,0.067,15.244,-21.402,-3.537
0.231,0.961,0.081,15.854,-8.354,-1.463
0.224,0.967,0.09,15.61,2.561,-2.744
0.223,0.976,0.088,14.512,6.707,-5.427
0.229,0.979,0.083,13.78,7.012,-5.671
0.226,0.979,0.083,13.659,9.817,-5.244
0.236,0.969,0.078,13.171,12.378,-4.634
0.255,0.949,0.075,12.317,9.146,-4.39
0.26,0.934,0.08,10.976,2.805,-4.512
0.265,0.921,0.094,9.695,-2.866,-4.451
0.254,0.895,0.088,8.841,-5.854,-4.573
0.237,0.892,0.052,7.439,-5.0,-4.878
0.221,0.901,0.0,6.22,-1.098,-4.756
0.224,0.89,-0.05,4.634,3.659,-4.634
0.24,0.868,-0.087,2.622,7.744,-4.695
0.232,0.85,-0.083,1.585,12.744,-4.024
0.21,0.853,-0.04,1.341,20.671,-2.317
0.189,0.894,0.012,2.317,31.707,-1.524
0.167,0.942,0.073,4.024,43.171,-2.683
0.158,0.969,0.135,4.695,51.402,-3.841
0.161,0.974,0.174,4.756,56.463,-4.939
0.167,0.962,0.181,5.61,61.585,-7.317
0.166,0.949,0.2,5.305,69.817,-9.695
0.175,0.957,0.171,3.902,77.073,-12.866
0.226,1.014,0.123,2.195,78.841,-16.463
0.235,1.053,0.086,0.549,75.0,-19.268
0.188,1.046,0.059,-0.366,66.159,-21.707
0.167,1.034,0.031,-0.061,53.72,-24.817
0.195,1.026,0.03,0.183,41.768,-27.927
0.222,1.012,0.05,0.244,30.0,-28.902
0.2,1.055,0.052,1.22,18.293,-28.537
0.151,1.093,0.063,2.073,7.561,-28.049
0.125,1.096,0.073,2.317,2.012,-26.037
0.142,1.066,0.083,4.329,3.598,-23.598
0.15,1.038,0.08,6.159,6.707,-23.232
0.136,1.012,0.074,4.817,5.854,-21.829
0.162,1.001,0.06,3.171,4.817,-20.061
0.199,1.042,0.035,2.622,8.293,-19.024
0.201,1.082,0.024,1.463,13.354,-17.5
0.197,1.109,0.032,-0.915,16.22,-15.854
0.207,1.117,0.052,-3.72,13.537,-15.305
0.209,1.121,0.086,-5.549,8.902,-14.268
0.167,1.147,0.146,-5.976,8.841,-11.707
0.121,1.179,0.213,-5.793,10.61,-9.451
0.12,1.175,0.28,-6.159,10.305,-7.195
0.139,1.165,0.338,-7.561,10.427,-5.0
0.141,1.147,0.38,-11.951,12.134,-5.183
0.146,1.096,0.435,-17.561,13.72,-5.61
0.171,1.068,0.423,-20.671,16.098,-4.451
0.227,0.997,0.356,-23.049,20.793,-2.866
0.261,0.934,0.385,-28.354,19.634,-1.22
0.316,0.924,0.336,-35.793,8.476,0.61
0.275,0.897,0.294,-39.024,-2.134,5.427
0.198,0.889,0.257,-37.134,-2.561,11.037
0.202,0.859,0.198,-32.256,5.976,15.427
0.235,0.814,0.134,-26.646,18.293,19.512
0.229,0.78,0.083,-22.927,28.963,23.049
0.195,0.738,0.036,-22.134,29.207,24.817
0.155,0.71,-0.009,-19.024,20.793,23.902
0.105,0.714,-0.065,-20.122,9.207,23.354
0.064,0.703,-0.116,-20.427,-4.085,23.78
0.043,0.681,-0.149,-20.183,-23.415,20.671
-0.001,0.682,-0.175,-21.037,-44.878,17.317
-0.037,0.692,-0.185,-20.488,-55.793,14.512
-0.009,0.673,-0.153,-19.207,-55.61,9.817
0.033,0.64,-0.056,-17.317,-51.951,5.671
0.049,0.617,0.043,-15.305,-47.378,2.988
0.073,0.617,0.1,-14.878,-41.768,0.183
0.149,0.716,0.135,-15.488,-32.5,-1.951
0.198,0.862,0.144,-15.732,-15.183,-3.963
0.174,0.974,0.1,-16.402,8.659,-6.22
0.232,1.1,0.028,-17.805,28.902,-8.293
0.249,1.162,0.04,-17.744,39.939,-10.427
0.188,1.204,0.119,-16.037,43.049,-12.744
0.231,1.259,0.236,-12.5,36.463,-15.366
0.268,1.274,0.38,-8.354,20.732,-19.268
0.185,1.262,0.449,-3.72,7.134,-20.366
0.099,1.227,0.422,1.159,4.085,-20.183
0.084,1.203,0.376,5.549,9.878,-22.927
0.089,1.194,0.324,13.72,23.11,-23.232
0.082,1.182,0.223,25.305,41.22,-25.366
0.141,1.152,0.16,30.183,53.963,-29.024
0.241,1.107,0.163,30.854,56.646,-30.305
0.266,1.071,0.191,28.293,58.476,-34.817
0.222,1.055,0.232,23.171,59.756,-32.744
0.18,1.05,0.289,19.451,45.915,-26.159
0.156,1.046,0.356,18.171,19.756,-17.561
0.144,1.064,0.386,15.427,-5.549,-8.049
0.128,1.094,0.376,10.671,-27.134,-1.037
0.135,1.101,0.374,6.585,-43.415,5.305
0.131,1.079,0.346,1.89,-50.061,10.549
0.139,1.035,0.301,-4.573,-45.183,15.305
0.172,0.992,0.272,-12.744,-39.573,17.744
0.179,0.96,0.235,-20.793,-39.146,17.561
0.171,0.96,0.17,-26.402,-41.28,18.171
0.165,0.986,0.108,-28.537,-43.232,19.756
0.176,0.979,0.07,-26.707,-44.756,22.378
0.2,0.952,0.06,-19.939,-42.073,25.305
0.217,0.923,0.094,-11.951,-33.049,25.793
0.231,0.903,0.126,-7.134,-26.098,26.463
0.269,0.862,0.215,-3.659,-20.549,27.378
0.281,0.869,0.302,-2.622,-14.756,27.805
0.262,0.904,0.323,-3.537,-12.561,28.476
0.217,0.901,0.313,-6.28,-17.683,29.451
0.168,0.883,0.284,-9.756,-27.744,29.268
0.156,0.87,0.253,-13.598,-37.073,29.573
0.179,0.862,0.242,-16.829,-43.232,31.037
0.2,0.859,0.192,-20.122,-49.024,30.305
0.254,0.84,0.145,-19.573,-52.195,28.963
0.259,0.841,0.112,-16.098,-49.634,27.5
0.225,0.867,0.03,-12.378,-42.744,23.841
0.22,0.858,-0.045,-8.476,-36.707,18.659
0.212,0.829,-0.068,-5.915,-34.512,12.988
0.186,0.81,-0.027,-4.39,-35.366,10.976
0.178,0.781,0.035,-3.049,-39.817,10.671
0.197,0.771,0.09,-2.5,-46.463,10.732
0.204,0.764,0.128,0.122,-51.159,11.585
0.22,0.757,0.162,3.598,-52.5,9.634
0.244,0.765,0.166,4.451,-51.89,7.988
0.257,0.788,0.114,3.232,-49.512,7.134
0.255,0.829,0.045,2.561,-43.11,6.159
0.266,0.867,-0.024,2.378,-35.732,4.634
0.303,0.895,-0.073,3.354,-32.561,2.378
0.27,0.903,-0.104,3.354,-32.317,0.122
0.2,0.885,-0.099,2.378,-30.854,0.0
0.179,0.864,-0.039,3.476,-27.927,-0.549
0.233,0.848,0.061,5.61,-23.902,-3.049
0.257,0.86,0.165,6.951,-16.524,-5.366
0.172,0.906,0.228,8.171,-4.756,-5.793
0.14,0.948,0.241,10.061,10.305,-5.183
0.216,0.999,0.218,12.988,24.573,-3.354
0.245,1.04,0.148,15.122,33.659,-2.378
0.256,1.021,0.063,14.878,34.329,-4.451
0.298,1.006,0.03,14.329,29.939,-7.988
0.311,1.031,0.064,13.841,29.329,-12.622
0.331,1.041,0.11,12.744,35.549,-18.659
0.354,1.017,0.163,10.488,43.232,-25.854
0.333,1.006,0.222,10.671,44.512,-33.415
0.289,0.982,0.248,14.695,45.183,-36.159
0.261,0.983,0.238,20.061,52.134,-36.89
0.222,1.021,0.224,23.72,56.89,-37.622
0.189,1.043,0.218,25.915,53.537,-36.098
0.208,1.075,0.199,23.78,44.146,-35.61
0.204,1.156,0.172,17.805,33.11,-34.207
0.157,1.218,0.151,13.232,25.549,-32.5
0.133,1.261,0.167,9.085,21.463,-30.671
0.159,1.292,0.217,4.756,15.183,-29.024
0.184,1.222,0.243,1.22,7.256,-26.037
0.157,1.14,0.288,-2.012,1.28,-22.683
0.149,1.085,0.335,-4.878,-0.793,-21.646
0.177,1.061,0.331,-7.378,1.341,-19.451
0.205,1.091,0.307,-9.268,7.927,-15.122
0.24,1.117,0.301,-11.402,14.085,-14.39
0.242,1.121,0.307,-16.341,15.183,-13.659
0.223,1.087,0.314,-22.439,16.22,-9.512
0.221,1.019,0.32,-25.671,22.256,-1.707
0.205,0.949,0.326,-25.549,26.707,5.427
0.201,0.886,0.344,-25.305,18.659,9.512
0.214,0.858,0.336,-25.488,0.061,12.866
0.183,0.862,0.322,-25.671,-18.902,17.439
0.174,0.857,0.226,-25.488,-28.232,22.012
0.224,0.819,0.196,-26.829,-27.317,24.512
0.231,0.8,0.199,-29.207,-22.5,25.793
0.183,0.815,0.104,-30.549,-18.78,25.976
0.167,0.836,0.016,-29.39,-17.622,26.341
0.173,0.859,-0.05,-25.549,-18.476,28.476
0.186,0.86,-0.078,-22.622,-20.915,30.732
0.198,0.841,-0.071,-20.793,-24.39,31.646
0.193,0.849,-0.065,-19.146,-29.451,31.524
0.212,0.866,-0.037,-14.146,-33.963,30.61
0.229,0.877,-0.015,-10.0,-32.805,28.049
0.22,0.921,-0.005,-9.695,-30.976,23.963
0.207,0.95,0.035,-10.549,-32.683,22.561
0.184,0.922,0.072,-12.134,-32.988,23.354
0.163,0.871,0.106,-12.012,-31.341,22.378
0.171,0.826,0.134,-9.39,-29.451,19.695
0.26,0.799,0.148,-6.829,-28.902,16.585
0.359,0.776,0.079,-2.866,-23.476,17.805
0.307,0.722,-0.041,3.171,-8.476,19.024
0.253,0.681,-0.14,11.646,9.817,19.024
0.265,0.648,-0.157,22.317,24.634,19.634
0.277,0.621,-0.115,34.39,34.146,18.11
0.247,0.655,-0.039,44.878,35.244,14.817
0.215,0.737,0.034,51.768,24.939,12.073
0.21,0.82,0.12,56.829,9.085,10.915
0.194,0.91,0.209,59.634,-2.134,10.305
0.116,0.991,0.271,58.72,-7.317,6.402
-0.005,1.061,0.286,55.122,-8.354,3.354
-0.049,1.111,0.246,50.61,-7.622,-0.122
0.033,1.092,0.164,45.427,-1.951,-3.72
0.152,1.009,0.092,40.488,7.134,-9.207
0.145,0.976,0.106,35.122,16.341,-19.695
0.22,0.939,0.14,30.976,25.732,-31.402
0.389,0.864,0.161,29.756,39.146,-40.244
0.463,0.877,0.107,31.707,53.841,-43.11
0.464,1.056,0.062,34.146,58.415,-43.354
0.415,1.244,0.077,34.878,46.707,-41.585
0.261,1.356,0.119,32.927,28.354,-38.354
0.118,1.408,0.155,31.037,16.585,-32.134
0.106,1.399,0.174,25.122,3.049,-28.415
0.117,1.329,0.179,15.915,-16.037,-27.256
0.1,1.25,0.167,9.268,-25.488,-28.049
0.1,1.202,0.165,3.293,-17.622,-29.756
0.146,1.154,0.186,-1.768,-4.756,-28.171
0.192,1.125,0.218,-4.39,6.402,-28.293
0.196,1.113,0.198,-9.878,13.659,-30.061
0.199,1.111,0.15,-18.902,11.28,-29.756
0.19,1.087,0.137,-25.0,8.049,-25.976
0.184,1.037,0.141,-24.878,10.305,-19.939
0.231,0.989,0.153,-19.451,13.049,-12.012
0.265,0.962,0.174,-15.0,6.89,-4.39
0.242,0.952,0.19,-13.537,-7.195,1.524
0.234,0.938,0.203,-12.561,-15.61,6.707
0.25,0.94,0.235,-12.5,-15.183,11.159
0.233,0.947,0.262,-14.573,-13.902,13.598
0.215,0.931,0.257,-17.744,-14.512,13.354
0.216,0.905,0.234,-19.512,-15.427,14.39
0.185,0.899,0.23,-19.634,-15.366,16.159
0.138,0.939,0.202,-19.39,-12.073,16.951
0.167,0.967,-0.0,-20.549,-8.293,17.866
0.226,0.913,-0.104,-20.732,-4.39,19.939
0.199,0.853,0.043,-16.341,4.207,20.915
0.144,0.891,0.119,-10.793,15.732,19.512
0.204,0.87,0.173,-7.561,24.756,17.866
0.317,0.865,0.234,-5.915,29.085,17.378
0.241,0.855,0.222,-5.671,25.671,16.463
0.193,0.846,0.192,-10.0,11.098,15.305
0.192,0.869,0.146,-20.0,-9.512,17.805
0.16,0.891,0.066,-23.841,-28.232,20.671
0.143,0.909,-0.026,-17.561,-36.89,20.122
0.153,0.929,-0.083,-13.963,-42.927,18.415
0.171,0.929,-0.093,-11.341,-53.354,15.61
0.214,0.927,-0.079,-4.329,-50.122,10.854
0.237,0.92,-0.035,0.854,-35.366,3.902
0.239,0.916,-0.004,4.939,-26.159,1.707
0.241,0.908,0.017,9.146,-21.768,0.427
0.263,0.9,0.039,11.098,-21.463,-2.378
0.284,0.888,0.061,10.793,-26.463,-4.39
0.297,0.874,0.072,8.659,-31.159,-4.573
0.287,0.871,0.072,5.915,-30.244,-3.049
0.271,0.879,0.067,4.146,-24.939,-0.915
0.256,0.882,0.066,3.72,-16.463,0.976
0.238,0.876,0.053,4.085,-7.256,1.89
0.22,0.878,0.02,5.305,0.183,0.793
0.217,0.874,-0.013,6.89,8.049,-0.427
0.231,0.858,-0.027,9.268,17.683,-1.829
0.255,0.841,-0.035,11.768,27.317,-3.902
0.271,0.828,-0.057,13.963,35.244,-6.159
0.268,0.833,-0.086,16.585,40.671,-7.805
0.238,0.849,-0.102,18.415,42.988,-9.634
0.204,0.849,-0.11,18.11,43.049,-10.671
0.191,0.85,-0.089,17.073,42.012,-11.402
0.149,0.867,-0.03,16.646,41.951,-13.11
0.063,0.896,0.058,16.585,46.829,-14.878
0.008,0.948,0.134,17.866,57.256,-16.829
-0.0,1.022,0.186,19.878,71.463,-19.512
0.025,1.069,0.232,20.244,85.793,-23.354
0.079,1.052,0.224,18.049,96.22,-27.927
0.062,1.072,0.226,15.61,101.89,-33.11
0.033,1.101,0.208,14.024,105.732,-37.5
0.068,1.072,0.188,12.866,110.061,-40.061
0.106,1.044,0.18,12.317,112.866,-40.427
0.092,1.035,0.198,12.5,111.585,-39.146
0.069,1.018,0.218,11.28,104.756,-38.293
0.072,1.005,0.217,10.0,98.72,-36.768
0.075,1.041,0.19,11.646,97.256,-34.085
0.052,1.129,0.146,14.207,95.793,-31.341
0.003,1.19,0.134,14.085,87.622,-29.451
-0.023,1.208,0.14,14.024,75.488,-28.598
-0.011,1.225,0.163,13.72,67.134,-26.707
-0.021,1.24,0.201,10.427,58.841,-25.0
-0.053,1.237,0.223,3.72,45.488,-24.451
-0.068,1.196,0.221,-4.085,29.39,-23.963
-0.065,1.152,0.235,-10.671,15.427,-23.232
-0.051,1.123,0.231,-14.024,7.134,-20.244
-0.011,1.096,0.218,-13.963,2.866,-17.744
0.032,1.068,0.245,-13.11,2.5,-16.28
0.044,1.018,0.282,-12.561,9.451,-13.232
0.096,0.977,0.324,-14.146,20.854,-10.366
0.121,0.972,0.36,-16.037,30.183,-7.073
0.099,0.982,0.367,-16.098,32.683,-1.951
0.082,1.002,0.334,-17.805,26.159,1.829
0.09,1.011,0.272,-21.829,11.89,5.732
0.106,1.005,0.228,-25.061,-5.0,10.732
0.105,0.983,0.258,-27.073,-17.012,14.207
0.098,1.005,0.278,-28.537,-22.195,16.402
0.112,1.018,0.179,-27.866,-20.0,19.878
0.167,0.978,0.03,-24.939,-16.037,20.854
0.217,0.905,0.034,-23.171,-17.073,19.512
0.18,0.898,0.107,-22.5,-23.841,20.183
0.137,0.919,0.092,-20.915,-30.915,22.561
0.143,0.862,0.106,-17.439,-33.659,24.024
0.197,0.828,0.126,-14.024,-34.39,23.902
0.173,0.834,0.074,-16.22,-37.5,24.146
0.118,0.798,0.055,-23.293,-46.463,26.341
0.125,0.79,0.061,-28.293,-59.329,28.841
0.13,0.78,0.078,-25.915,-66.463,29.39
0.141,0.758,0.083,-20.183,-65.122,27.988
0.142,0.754,0.073,-18.78,-68.537,23.598
0.129,0.757,0.044,-19.146,-76.28,18.11
0.145,0.767,-0.005,-16.768,-69.024,17.683
0.189,0.78,-0.062,-13.72,-49.939,16.037
0.206,0.782,-0.108,-10.183,-35.976,10.488
0.212,0.805,-0.138,-6.829,-28.659,7.988
0.188,0.87,-0.099,-4.512,-25.976,3.78
0.079,0.934,0.004,-2.439,-23.537,-0.549
-0.013,0.984,0.137,-0.183,-18.902,-3.476
-0.025,1.02,0.251,1.89,-14.268,-6.707
0.013,1.036,0.313,3.11,-9.329,-9.939
0.089,1.016,0.321,5.61,1.524,-12.805
0.184,0.963,0.281,8.78,17.134,-16.037
0.166,0.903,0.301,11.707,27.805,-17.866
0.133,0.897,0.313,13.476,29.207,-16.951
0.199,0.905,0.28,13.963,22.744,-16.402
0.295,0.983,0.231,11.89,10.671,-14.939
0.327,1.076,0.179,10.183,-2.5,-14.329
0.369,1.066,0.106,10.122,-9.146,-16.22
0.409,1.014,0.046,11.159,-6.098,-18.049
0.396,0.986,0.021,15.61,5.122,-17.378
0.344,0.959,0.017,19.817,12.927,-18.841
0.295,0.917,0.04,18.902,8.963,-19.024
0.33,0.865,0.081,15.549,-6.768,-19.329
0.428,0.898,0.043,12.012,-22.622,-20.732
0.383,0.985,0.019,10.183,-28.72,-21.646
0.404,1.066,0.042,11.768,-25.976,-25.915
