acc_x_axis_g,acc_y_axis_g,acc_z_axis_g,gyr_x_axis_deg/s,gyr_y_axis_deg/s,gyr_z_axis_deg/s
0.219,0.748,0.59,-10.122,7.805,25.488
0.264,0.735,0.654,-9.024,12.317,21.402
0.259,0.728,0.619,-8.963,13.537,19.939
0.224,0.729,0.603,-9.146,15.793,21.585
0.268,0.74,0.612,-11.28,24.695,24.146
0.276,0.769,0.618,-12.744,34.085,24.329
0.24,0.758,0.589,-12.439,36.707,21.585
0.211,0.742,0.551,-11.768,35.061,16.28
0.152,0.749,0.549,-12.5,32.988,10.915
0.108,0.762,0.556,-12.134,32.5,6.341
0.108,0.757,0.585,-10.0,32.195,2.927
0.129,0.748,0.609,-7.622,27.256,-1.28
0.144,0.745,0.586,-6.768,15.671,-5.366
0.124,0.743,0.53,-5.549,-2.134,-10.61
0.101,0.736,0.517,-5.793,-22.256,-14.939
0.047,0.727,0.513,-7.317,-38.476,-15.122
0.029,0.732,0.537,-7.195,-48.049,-14.695
0.033,0.719,0.581,-5.427,-51.89,-13.841
0.005,0.707,0.618,-3.476,-52.561,-12.317
-0.006,0.709,0.626,-1.159,-51.768,-11.159
0.004,0.727,0.612,-0.732,-45.854,-9.939
0.063,0.742,0.587,-2.378,-27.5,-6.463
0.213,0.751,0.59,-1.646,1.524,-1.098
0.347,0.728,0.633,2.134,24.329,6.159
0.285,0.656,0.657,4.268,29.756,10.61
0.125,0.661,0.628,4.573,23.78,7.256
0.046,0.728,0.644,7.805,13.598,0.488
0.036,0.738,0.68,11.22,-2.317,-4.817
0.015,0.713,0.674,11.22,-19.085,-7.134
0.005,0.736,0.636,10.61,-27.134,-8.354
0.068,0.759,0.618,12.195,-28.598,-8.354
0.099,0.748,0.615,11.098,-29.39,-3.78
0.076,0.757,0.597,8.963,-24.878,1.22
0.152,0.806,0.604,9.634,-15.976,3.72
0.209,0.793,0.641,9.878,-7.683,7.683
0.175,0.772,0.662,10.366,-2.866,8.841
0.134,0.779,0.653,12.012,-6.646,6.646
0.079,0.778,0.627,10.366,-16.646,5.732
0.036,0.793,0.604,8.476,-23.659,4.756
0.072,0.807,0.597,9.207,-27.622,4.695
0.113,0.776,0.602,8.293,-32.317,8.11
0.112,0.778,0.599,5.305,-37.012,13.049
0.125,0.805,0.584,3.476,-39.756,16.159
0.15,0.821,0.573,3.841,-43.171,15.122
0.195,0.809,0.548,3.171,-49.451,9.939
0.237,0.786,0.502,0.976,-56.28,3.171
0.268,0.771,0.488,-3.78,-62.927,1.159
0.248,0.762,0.507,-10.122,-61.707,2.256
0.279,0.776,0.53,-14.878,-44.024,1.951
0.396,0.766,0.572,-16.341,-14.756,1.829
0.504,0.747,0.627,-13.659,18.963,2.561
0.543,0.741,0.681,-11.951,47.561,6.098
0.431,0.748,0.739,-11.707,68.537,9.756
0.289,0.75,0.737,-10.854,85.915,13.841
0.205,0.754,0.724,-6.463,100.427,18.78
0.179,0.75,0.711,0.671,107.561,23.11
0.13,0.727,0.731,5.976,104.634,27.5
0.042,0.738,0.749,9.634,94.207,30.122
0.001,0.764,0.731,10.549,84.451,31.402
0.002,0.783,0.701,9.085,81.524,34.207
0.049,0.799,0.67,8.902,86.28,35.671
0.152,0.789,0.663,8.841,95.305,32.988
0.256,0.777,0.644,5.854,107.866,29.39
0.308,0.782,0.621,3.293,123.11,24.939
0.364,0.76,0.61,1.402,137.195,21.707
0.384,0.719,0.607,-1.341,145.305,21.89
0.361,0.713,0.541,0.244,139.817,20.854
0.311,0.713,0.454,2.317,117.134,18.11
0.172,0.716,0.43,0.915,80.732,15.0
0.032,0.73,0.431,-0.122,40.061,10.366
-0.021,0.752,0.456,1.402,3.78,7.012
-0.042,0.748,0.482,3.049,-28.415,5.0
-0.007,0.711,0.472,0.976,-57.134,2.439
-0.002,0.701,0.464,0.366,-81.829,1.707
-0.081,0.703,0.487,3.841,-105.549,2.683
-0.064,0.688,0.472,7.012,-121.829,2.622
0.045,0.674,0.488,8.659,-130.0,2.317
0.211,0.699,0.487,11.768,-132.256,2.927
0.317,0.712,0.499,14.878,-130.732,-0.061
0.279,0.719,0.579,14.939,-126.098,-2.378
0.203,0.74,0.592,13.537,-110.793,-2.561
0.283,0.751,0.569,13.11,-83.841,-1.829
0.395,0.748,0.544,11.585,-52.744,0.427
0.398,0.744,0.55,5.793,-19.939,4.207
0.359,0.767,0.585,2.012,14.695,8.72
0.333,0.772,0.611,3.415,45.305,9.512
0.315,0.748,0.623,3.11,66.646,9.756
0.255,0.744,0.646,2.927,79.329,11.402
0.234,0.746,0.7,3.841,85.732,11.646
0.258,0.738,0.741,4.695,87.988,9.756
0.277,0.739,0.703,10.0,84.939,5.732
0.303,0.745,0.585,17.134,70.366,1.098
0.243,0.751,0.505,15.366,43.476,-5.244
0.129,0.788,0.506,9.634,17.195,-10.122
0.119,0.812,0.544,6.037,2.256,-11.159
0.173,0.789,0.562,3.598,-2.866,-11.402
0.168,0.75,0.519,0.915,-3.293,-11.28
0.127,0.739,0.459,-1.341,-2.439,-6.89
0.095,0.75,0.451,-3.72,-2.012,-0.061
0.042,0.758,0.516,-5.244,-5.793,5.366
0.033,0.751,0.523,-6.159,-12.988,7.927
0.083,0.737,0.479,-9.939,-16.89,5.549
0.071,0.735,0.521,-9.146,-20.244,3.78
0.053,0.719,0.547,-6.951,-25.671,4.268
0.057,0.712,0.606,-9.329,-30.488,2.256
0.111,0.73,0.636,-12.012,-24.939,1.524
0.22,0.758,0.666,-13.476,-7.683,2.073
0.303,0.779,0.743,-13.902,17.927,-1.463
0.339,0.816,0.836,-10.366,47.378,-5.671
0.399,0.81,0.851,-5.549,72.927,-7.378
0.414,0.761,0.862,-1.037,88.354,-6.89
0.362,0.728,0.861,4.268,93.598,-4.39
0.255,0.705,0.799,7.439,89.634,-2.866
0.158,0.716,0.694,9.207,77.134,-3.476
0.165,0.751,0.533,7.866,58.354,-4.878
0.167,0.793,0.395,-0.305,40.488,-4.39
0.021,0.83,0.409,-11.28,33.537,-3.354
-0.051,0.846,0.482,-19.878,47.866,-6.159
0.084,0.85,0.536,-20.366,75.366,-8.78
0.203,0.78,0.597,-16.402,94.695,-6.098
0.11,0.678,0.668,-14.146,95.793,0.183
-0.096,0.63,0.698,-11.524,87.378,5.61
-0.207,0.634,0.655,-6.646,78.049,8.598
-0.156,0.656,0.603,-1.037,61.22,10.976
-0.031,0.662,0.563,1.098,39.085,12.378
-0.058,0.674,0.558,-1.585,21.159,10.549
-0.061,0.724,0.612,-5.793,16.463,2.561
0.125,0.783,0.656,-9.268,30.61,-6.707
0.341,0.785,0.682,-8.049,52.378,-10.427
0.492,0.728,0.656,-3.11,67.683,-10.183
0.485,0.686,0.62,1.28,74.573,-13.354
0.342,0.696,0.657,2.561,76.646,-17.134
0.195,0.725,0.697,4.573,75.244,-17.073
0.082,0.745,0.624,11.402,65.915,-14.573
-0.076,0.737,0.499,12.866,42.622,-14.39
-0.263,0.763,0.463,5.183,10.976,-14.329
-0.347,0.834,0.49,3.902,-20.183,-11.463
-0.356,0.857,0.436,5.854,-55.976,-7.134
-0.373,0.825,0.391,3.78,-95.854,-3.11
-0.456,0.815,0.384,-0.854,-134.939,0.671
-0.443,0.828,0.378,-3.537,-165.488,3.415
-0.319,0.814,0.375,-5.122,-184.817,4.512
-0.162,0.786,0.4,-8.963,-184.146,3.354
0.053,0.77,0.485,-10.793,-156.89,3.537
0.289,0.71,0.586,-9.268,-107.622,4.634
0.448,0.656,0.715,-9.817,-47.805,4.939
0.577,0.654,0.77,-9.573,12.256,5.915
0.636,0.652,0.8,-4.207,58.78,5.732
0.57,0.621,0.812,1.341,83.598,2.622
0.38,0.626,0.817,4.939,89.634,2.012
0.242,0.665,0.825,6.768,87.317,0.366
0.204,0.705,0.811,9.329,88.537,-3.049
0.184,0.728,0.735,11.768,89.939,-5.549
0.19,0.745,0.649,12.683,86.341,-6.768
0.163,0.774,0.562,12.5,70.244,-7.012
0.021,0.769,0.534,11.646,34.207,-10.915
-0.152,0.776,0.565,13.537,-12.988,-12.988
-0.256,0.765,0.563,15.122,-50.366,-13.049
-0.28,0.786,0.642,14.756,-76.341,-13.72
-0.186,0.824,0.622,10.244,-98.78,-11.707
-0.17,0.86,0.466,3.902,-118.049,-4.939
-0.296,0.881,0.323,-2.378,-131.402,-1.524
-0.328,0.874,0.325,-6.951,-130.793,-1.098
-0.145,0.863,0.439,-9.39,-115.854,0.793
0.168,0.825,0.538,-8.049,-93.78,3.659
0.373,0.73,0.643,-2.317,-71.585,8.354
0.338,0.606,0.723,1.707,-52.683,11.037
0.237,0.566,0.754,3.11,-35.732,6.951
0.264,0.613,0.708,2.927,-18.598,1.037
0.362,0.667,0.671,0.61,-4.451,-1.463
0.348,0.696,0.679,-2.195,8.78,-0.732
0.239,0.738,0.716,-1.098,23.293,-0.61
0.207,0.762,0.745,3.049,41.585,-2.5
0.209,0.778,0.763,9.573,60.61,-5.183
0.203,0.785,0.749,17.256,72.378,-5.0
0.165,0.774,0.689,21.22,63.78,-0.915
0.061,0.797,0.57,19.329,31.098,1.463
-0.075,0.834,0.474,12.927,-14.329,0.793
-0.198,0.833,0.432,3.841,-57.988,0.427
-0.183,0.82,0.363,-5.366,-83.72,0.488
-0.038,0.803,0.349,-11.646,-82.683,0.915
0.133,0.773,0.436,-12.561,-62.439,2.073
0.262,0.74,0.542,-10.0,-40.732,1.707
0.271,0.717,0.602,-6.951,-31.829,1.28
0.17,0.713,0.626,-5.61,-31.524,1.402
0.094,0.724,0.628,-3.659,-33.415,0.305
0.144,0.732,0.597,-1.951,-37.012,-0.305
0.158,0.714,0.613,-1.768,-45.305,1.524
0.115,0.702,0.599,-3.354,-54.146,1.098
0.1,0.712,0.537,-5.244,-56.951,-0.244
0.106,0.736,0.557,-5.427,-52.683,0.122
0.156,0.75,0.618,-3.354,-42.561,0.549
0.2,0.758,0.699,-1.098,-24.39,2.439
0.227,0.766,0.789,4.207,5.61,4.695
0.31,0.769,0.881,15.61,44.451,6.951
0.367,0.745,0.956,27.561,74.573,8.415
0.368,0.747,0.884,34.024,83.354,9.207
0.267,0.794,0.763,35.671,62.439,10.122
0.156,0.831,0.606,29.756,11.768,7.317
0.054,0.849,0.39,15.427,-50.915,0.366
0.001,0.864,0.159,-1.037,-99.817,-6.524
0.03,0.842,0.111,-12.683,-114.39,-9.878
0.151,0.779,0.23,-17.073,-95.488,-10.244
0.313,0.729,0.402,-15.183,-61.585,-7.317
0.347,0.676,0.559,-10.244,-30.671,-1.829
0.293,0.656,0.638,-4.695,-12.195,2.5
0.216,0.679,0.626,-1.524,-6.524,3.049
0.134,0.723,0.602,0.305,-8.963,1.341
0.096,0.747,0.602,0.61,-16.341,-0.854
0.082,0.734,0.619,1.22,-24.634,-1.585
0.081,0.72,0.64,4.878,-28.902,-3.963
0.126,0.709,0.692,9.451,-27.805,-3.537
0.162,0.716,0.729,11.768,-21.768,0.061
0.188,0.74,0.744,14.512,-8.659,2.134
0.237,0.771,0.719,16.707,9.695,2.622
0.266,0.813,0.679,17.378,29.329,3.293
0.292,0.834,0.664,19.024,44.939,3.841
0.36,0.835,0.596,20.488,43.78,3.598
0.386,0.827,0.432,16.585,17.012,3.415
0.277,0.822,0.274,5.61,-25.732,0.244
0.199,0.838,0.167,-6.22,-62.561,-6.22
0.125,0.821,0.241,-12.317,-83.171,-12.195
0.176,0.751,0.339,-14.146,-84.573,-15.427
0.245,0.698,0.455,-13.537,-68.963,-14.39
0.34,0.668,0.561,-10.732,-42.988,-10.427
0.363,0.676,0.634,-7.073,-19.39,-7.134
0.3,0.702,0.649,-4.268,-6.951,-6.22
0.196,0.729,0.633,-3.049,-7.378,-4.329
0.065,0.748,0.646,-2.378,-17.256,-5.671
0.022,0.763,0.65,2.744,-32.317,-9.085
0.089,0.752,0.598,7.439,-53.049,-6.402
0.082,0.744,0.534,9.024,-81.341,-2.988
0.018,0.753,0.491,8.232,-111.402,-5.488
0.104,0.789,0.44,4.573,-129.207,-10.488
0.235,0.808,0.421,0.061,-127.5,-12.317
0.353,0.772,0.428,-5.122,-105.549,-12.744
0.47,0.757,0.476,-12.256,-69.268,-10.0
0.584,0.792,0.477,-16.037,-27.744,-13.537
0.766,0.831,0.421,-14.573,11.524,-16.768
0.737,0.805,0.519,-10.61,36.951,-11.28
0.543,0.767,0.593,-7.317,41.829,-7.195
0.278,0.799,0.62,-5.427,28.841,-5.183
0.106,0.854,0.6,-5.488,10.549,-3.476
0.035,0.877,0.548,-6.585,-0.671,-1.951
0.048,0.876,0.512,-7.317,1.22,1.037
0.125,0.853,0.528,-7.744,18.963,2.622
0.274,0.807,0.604,-4.817,50.122,3.78
0.424,0.751,0.696,4.024,77.622,7.622
0.455,0.667,0.688,11.585,79.573,11.585
0.287,0.648,0.633,15.244,52.561,10.61
0.095,0.689,0.559,15.549,14.756,5.0
0.038,0.72,0.496,13.293,-13.659,0.305
0.136,0.735,0.472,11.037,-21.951,-1.28
0.315,0.74,0.465,10.305,-11.829,-3.354
0.435,0.744,0.494,10.61,4.695,-3.415
0.398,0.741,0.529,10.305,15.671,0.244
0.338,0.745,0.499,8.293,19.634,2.744
0.237,0.779,0.479,3.537,19.512,3.476
0.137,0.823,0.465,-0.244,25.0,0.244
0.197,0.836,0.441,-2.195,36.89,-2.256
0.263,0.803,0.438,-4.573,46.768,0.915
0.216,0.763,0.457,-7.622,51.89,4.756
0.175,0.785,0.482,-10.305,58.232,5.915
0.204,0.84,0.51,-9.146,67.805,8.293
0.225,0.843,0.534,-4.573,73.415,9.817
0.184,0.824,0.567,0.244,71.524,9.268
0.111,0.826,0.624,3.476,66.402,7.073
0.108,0.813,0.639,5.793,63.049,2.805
0.181,0.777,0.634,7.561,65.061,0.244
0.279,0.748,0.649,6.463,72.988,0.732
0.334,0.737,0.646,2.5,89.085,2.439
0.401,0.753,0.603,-1.768,113.963,1.646
0.486,0.775,0.586,-4.329,139.695,-0.854
0.484,0.756,0.565,-5.366,156.89,-3.11
0.419,0.747,0.511,-6.89,161.402,-5.671
0.316,0.771,0.468,-9.756,154.024,-9.817
0.24,0.808,0.462,-12.012,136.159,-15.122
