acc_x_axis_g,acc_y_axis_g,acc_z_axis_g,gyr_x_axis_deg/s,gyr_y_axis_deg/s,gyr_z_axis_deg/s
-0.428,0.569,0.301,-54.207,-0.732,18.659
-0.39,0.544,0.302,-46.22,4.817,12.561
-0.383,0.532,0.291,-38.78,10.854,8.232
-0.386,0.522,0.307,-30.488,15.976,3.72
-0.368,0.508,0.313,-21.159,21.585,-0.305
-0.359,0.518,0.271,-14.024,27.195,-2.5
-0.376,0.54,0.239,-7.5,31.707,-5.061
-0.359,0.552,0.208,-2.988,38.171,-7.744
-0.364,0.553,0.201,0.122,43.537,-10.122
-0.406,0.544,0.191,3.78,43.902,-12.5
-0.45,0.548,0.159,5.854,41.707,-13.476
-0.509,0.55,0.145,8.354,38.11,-13.11
-0.536,0.545,0.157,13.049,35.122,-12.5
-0.541,0.54,0.186,18.78,34.39,-10.61
-0.536,0.546,0.222,25.244,34.878,-8.415
-0.517,0.58,0.221,30.549,38.049,-6.037
-0.496,0.632,0.221,35.976,42.317,-4.207
-0.476,0.684,0.204,39.207,45.854,-2.927
-0.481,0.74,0.192,39.39,47.988,-2.927
-0.535,0.782,0.183,40.061,47.5,-3.049
-0.57,0.806,0.163,39.878,45.976,-2.927
-0.561,0.818,0.132,38.841,47.561,-3.232
-0.548,0.834,0.101,35.427,51.585,-4.024
-0.634,0.847,0.097,31.341,51.463,-4.268
-0.76,0.845,0.112,29.268,45.61,-1.829
-0.77,0.852,0.126,28.72,41.037,0.122
-0.705,0.873,0.141,29.146,39.39,1.951
-0.679,0.93,0.146,28.537,39.268,2.073
-0.66,0.967,0.117,25.671,39.878,0.793
-0.609,0.971,0.101,22.439,39.817,-2.378
-0.583,0.971,0.094,18.963,38.902,-6.463
-0.586,0.95,0.077,15.061,36.22,-10.183
-0.578,0.928,0.078,12.378,38.11,-14.39
-0.571,0.889,0.094,10.854,43.049,-17.744
-0.611,0.839,0.099,10.732,43.72,-19.207
-0.661,0.823,0.086,10.122,39.939,-19.085
-0.695,0.819,0.073,8.72,35.427,-18.293
-0.724,0.802,0.08,7.622,31.829,-17.378
-0.751,0.78,0.1,7.622,27.561,-15.488
-0.76,0.772,0.105,7.866,23.293,-13.476
-0.751,0.78,0.104,8.293,18.902,-11.22
-0.708,0.785,0.093,8.293,15.732,-9.451
-0.676,0.803,0.074,7.134,13.537,-7.988
-0.668,0.818,0.049,5.671,10.976,-6.89
-0.66,0.819,0.044,4.329,8.354,-6.037
-0.652,0.815,0.042,3.659,5.915,-4.817
-0.655,0.807,0.023,2.5,4.024,-2.988
-0.655,0.801,0.008,1.402,1.159,-1.402
-0.649,0.799,0.004,0.549,-1.28,0.183
-0.63,0.79,0.013,0.244,-2.683,1.341
-0.608,0.779,0.018,0.732,-3.11,1.951
-0.614,0.787,0.005,0.0,-3.171,2.805
-0.615,0.789,-0.003,-0.549,-3.78,2.927
-0.604,0.783,-0.009,-0.854,-3.78,3.11
-0.596,0.784,-0.012,-1.159,-2.866,3.171
-0.585,0.781,-0.01,-0.366,-2.256,2.378
-0.575,0.79,-0.015,-0.671,-1.768,1.829
-0.585,0.8,-0.027,-1.89,-1.463,1.402
-0.6,0.793,-0.032,-2.317,-1.585,1.341
-0.603,0.778,-0.032,-2.5,-0.732,1.89
-0.599,0.776,-0.018,-2.5,-0.366,1.768
-0.612,0.776,-0.015,-2.622,-1.098,1.646
-0.62,0.767,0.0,-1.951,-2.012,1.463
-0.61,0.76,0.018,-1.098,-2.012,1.159
-0.613,0.763,0.022,0.061,-1.89,0.976
-0.613,0.769,0.016,0.549,-1.768,0.854
-0.618,0.776,0.002,0.244,-2.134,0.488
-0.628,0.789,0.001,-0.244,-3.11,0.244
-0.628,0.794,0.006,-0.854,-3.415,0.122
-0.628,0.791,0.01,-1.341,-3.902,0.122
-0.633,0.781,0.023,-1.341,-4.817,-0.244
-0.629,0.772,0.045,-0.488,-4.939,-0.427
-0.629,0.764,0.046,0.183,-5.061,-0.183
-0.628,0.764,0.048,0.915,-5.549,-0.183
-0.63,0.773,0.048,1.463,-5.366,0.061
-0.625,0.772,0.032,1.646,-5.366,0.427
-0.612,0.773,0.028,1.646,-5.427,0.366
-0.61,0.782,0.032,1.22,-4.817,0.183
-0.594,0.774,0.039,1.28,-3.537,-0.183
-0.584,0.773,0.042,1.037,-2.195,-0.854
-0.595,0.775,0.043,0.976,-1.28,-1.098
-0.604,0.771,0.045,0.976,-0.61,-1.098
-0.608,0.771,0.038,1.098,-0.122,-0.976
-0.613,0.773,0.032,0.915,-0.061,-0.854
-0.612,0.769,0.035,0.915,0.061,-0.976
-0.61,0.77,0.033,0.976,0.732,-0.732
-0.603,0.774,0.03,0.671,1.951,-1.037
-0.603,0.776,0.029,0.183,2.744,-1.585
-0.608,0.771,0.034,0.549,2.622,-1.829
-0.613,0.764,0.037,1.037,2.256,-1.951
-0.614,0.761,0.044,1.585,1.951,-2.073
-0.63,0.756,0.048,2.134,0.915,-1.646
-0.645,0.756,0.047,2.866,-0.305,-1.037
-0.649,0.758,0.049,3.659,-0.854,-0.488
-0.642,0.764,0.052,4.207,-1.402,-0.061
-0.636,0.769,0.051,4.634,-2.073,0.183
-0.629,0.78,0.038,4.512,-2.378,0.732
-0.618,0.787,0.025,3.78,-1.951,0.915
-0.614,0.794,0.012,2.866,-1.768,0.976
-0.616,0.801,0.008,1.89,-2.195,0.793
-0.617,0.794,0.011,0.915,-3.049,0.549
-0.619,0.785,0.014,0.122,-3.72,0.488
-0.61,0.78,0.023,-0.305,-3.78,0.366
-0.605,0.771,0.04,-0.305,-2.5,0.061
-0.607,0.766,0.044,-0.122,-0.854,-0.122
-0.611,0.763,0.043,0.305,-0.732,-0.061
-0.619,0.764,0.039,0.366,-1.89,0.122
-0.621,0.767,0.041,0.671,-2.683,0.427
-0.616,0.771,0.033,0.671,-2.439,0.915
-0.608,0.779,0.026,0.61,-1.646,1.28
-0.596,0.786,0.022,0.122,-0.427,1.402
-0.588,0.79,0.023,-0.793,0.366,1.28
-0.593,0.788,0.032,-1.585,0.61,1.098
-0.597,0.782,0.041,-1.829,0.854,1.341
-0.598,0.783,0.041,-1.951,1.463,1.463
-0.597,0.786,0.035,-2.439,1.89,1.524
-0.606,0.78,0.03,-2.683,1.585,1.707
-0.613,0.778,0.036,-2.927,1.524,2.256
-0.617,0.782,0.036,-3.049,1.829,2.866
-0.618,0.785,0.022,-3.171,2.195,3.354
-0.612,0.789,0.015,-3.476,2.073,3.354
-0.613,0.792,0.0,-3.902,1.341,3.232
-0.612,0.792,-0.001,-4.024,0.671,3.293
-0.6,0.787,-0.006,-3.72,0.915,2.988
-0.588,0.784,-0.002,-3.171,1.341,2.256
-0.59,0.779,-0.005,-2.927,1.341,1.585
-0.6,0.771,0.002,-2.073,0.793,1.037
-0.605,0.762,0.006,-0.671,0.549,0.732
-0.62,0.762,0.013,0.671,0.793,0.732
-0.629,0.763,0.015,1.89,0.427,0.549
-0.642,0.772,0.014,2.744,-0.671,0.488
-0.649,0.772,0.018,3.171,-1.951,0.366
-0.649,0.775,0.018,3.598,-3.171,-0.122
-0.641,0.775,0.021,4.024,-3.902,-0.976
-0.632,0.778,0.02,4.024,-4.39,-1.768
-0.628,0.782,0.023,3.78,-5.061,-2.622
-0.624,0.786,0.032,3.598,-5.305,-3.232
-0.617,0.786,0.038,3.232,-5.122,-3.537
-0.613,0.788,0.046,2.988,-5.305,-3.841
-0.611,0.788,0.053,2.561,-5.488,-3.902
-0.613,0.79,0.059,2.073,-5.427,-3.476
-0.604,0.788,0.063,1.585,-5.183,-3.11
-0.601,0.787,0.065,1.159,-5.122,-2.5
-0.604,0.791,0.065,0.427,-5.244,-1.585
-0.603,0.797,0.063,-0.549,-5.122,-0.915
-0.591,0.8,0.059,-1.646,-4.207,-0.305
-0.592,0.803,0.056,-2.744,-3.293,0.488
-0.589,0.807,0.052,-3.78,-2.5,1.098
-0.582,0.806,0.051,-4.695,-1.402,1.28
-0.588,0.798,0.053,-5.244,-0.61,1.646
-0.593,0.793,0.051,-5.976,-0.122,2.073
-0.597,0.784,0.053,-5.915,-0.061,1.951
-0.601,0.775,0.053,-5.793,0.305,1.951
-0.614,0.769,0.046,-5.549,0.183,2.195
-0.624,0.766,0.047,-4.878,-0.793,2.012
-0.632,0.762,0.045,-3.841,-1.707,2.195
-0.633,0.768,0.042,-2.866,-2.256,2.378
-0.625,0.775,0.033,-2.317,-2.5,2.134
-0.618,0.775,0.023,-1.829,-2.317,1.707
-0.617,0.773,0.021,-1.463,-2.195,1.402
-0.615,0.776,0.013,-1.341,-2.439,0.671
-0.622,0.773,0.013,-1.341,-2.866,-0.061
-0.626,0.765,0.022,-0.61,-3.354,-0.732
-0.623,0.759,0.035,0.122,-3.537,-1.28
-0.621,0.76,0.044,0.915,-4.024,-1.89
-0.625,0.757,0.046,1.951,-4.756,-2.317
-0.627,0.757,0.042,2.744,-5.793,-2.622
-0.623,0.763,0.048,3.049,-6.768,-2.927
-0.609,0.765,0.048,3.72,-6.585,-2.927
-0.6,0.77,0.048,3.902,-6.159,-3.11
-0.593,0.777,0.043,3.659,-5.793,-3.293
-0.597,0.773,0.049,3.049,-5.488,-3.11
-0.598,0.771,0.063,2.683,-5.061,-2.988
-0.592,0.772,0.073,2.378,-3.902,-2.927
-0.592,0.774,0.078,1.89,-2.439,-2.744
-0.596,0.775,0.08,1.585,-1.463,-2.378
-0.604,0.784,0.077,0.854,-1.341,-1.89
-0.605,0.795,0.073,-0.671,-1.037,-1.402
-0.6,0.796,0.072,-1.951,-0.488,-1.098
-0.596,0.791,0.075,-2.805,0.183,-0.61
-0.594,0.79,0.075,-3.841,0.793,0.0
-0.588,0.793,0.079,-4.756,1.524,0.366
-0.585,0.791,0.078,-5.732,2.073,0.793
-0.591,0.787,0.076,-6.159,2.256,1.22
-0.598,0.788,0.07,-6.707,2.561,1.951
-0.602,0.786,0.062,-7.195,2.683,2.622
-0.609,0.784,0.063,-7.378,2.683,3.232
-0.616,0.779,0.06,-7.073,2.561,3.902
-0.616,0.777,0.056,-6.524,1.768,4.024
-0.619,0.773,0.054,-5.915,0.366,3.963
-0.626,0.771,0.047,-5.122,-0.61,4.024
-0.628,0.771,0.042,-4.268,-1.463,3.659
-0.63,0.77,0.038,-3.354,-2.195,3.293
-0.638,0.771,0.03,-2.683,-3.171,3.11
-0.648,0.771,0.027,-1.951,-4.634,2.439
-0.647,0.765,0.035,-1.28,-5.854,1.768
-0.644,0.758,0.04,-0.183,-6.89,0.915
-0.643,0.755,0.052,0.854,-6.524,0.244
-0.641,0.753,0.054,2.317,-6.037,-0.732
-0.648,0.756,0.046,3.049,-6.585,-1.463
-0.647,0.763,0.042,3.537,-8.049,-2.012
-0.642,0.771,0.045,3.476,-9.573,-2.622
-0.635,0.776,0.054,3.232,-10.732,-2.988
-0.619,0.771,0.068,3.537,-11.159,-3.232
-0.603,0.772,0.077,3.902,-10.549,-3.598
-0.592,0.769,0.078,4.146,-10.244,-3.72
-0.589,0.772,0.077,3.841,-9.878,-3.537
-0.585,0.779,0.078,3.293,-9.207,-3.232
-0.576,0.783,0.08,2.683,-7.988,-2.805
-0.572,0.79,0.08,1.524,-6.524,-2.012
-0.573,0.794,0.08,0.61,-5.427,-1.341
-0.576,0.792,0.08,-0.305,-4.634,-0.488
-0.58,0.788,0.086,-1.22,-4.146,0.366
-0.584,0.786,0.097,-1.463,-3.354,0.976
-0.593,0.779,0.103,-1.28,-2.683,1.768
-0.597,0.781,0.099,-1.341,-2.439,2.439
-0.604,0.785,0.096,-1.829,-2.683,2.927
-0.604,0.784,0.094,-2.073,-3.171,3.049
-0.602,0.784,0.091,-2.439,-3.171,3.11
-0.599,0.785,0.088,-2.683,-3.049,3.11
-0.599,0.785,0.086,-3.049,-2.988,3.049
-0.606,0.787,0.083,-3.354,-3.049,2.988
-0.61,0.785,0.076,-3.537,-2.988,2.744
-0.607,0.781,0.075,-3.354,-2.805,2.561
-0.603,0.781,0.077,-3.11,-2.439,2.134
-0.604,0.78,0.076,-2.927,-2.256,1.585
-0.605,0.777,0.068,-2.805,-2.439,1.098
-0.609,0.777,0.067,-2.5,-2.256,0.671
-0.609,0.777,0.068,-2.317,-2.073,0.305
-0.609,0.777,0.071,-2.073,-2.256,-0.244
-0.612,0.773,0.069,-1.768,-2.317,-0.549
-0.613,0.776,0.073,-1.585,-2.5,-0.976
-0.615,0.776,0.081,-1.22,-3.354,-1.28
-0.621,0.771,0.088,-0.488,-3.963,-1.402
-0.614,0.765,0.093,0.427,-4.634,-1.585
-0.612,0.765,0.094,1.037,-5.488,-1.707
-0.613,0.771,0.093,1.402,-6.402,-1.951
-0.609,0.769,0.1,1.89,-7.073,-2.317
-0.601,0.759,0.108,2.622,-6.768,-2.622
-0.602,0.752,0.107,3.415,-6.768,-2.744
-0.606,0.754,0.113,3.78,-7.805,-2.988
-0.621,0.754,0.123,4.207,-9.268,-3.171
-0.646,0.75,0.137,5.0,-11.402,-2.744
-0.663,0.747,0.139,5.915,-13.659,-1.646
-0.684,0.764,0.115,5.366,-15.061,0.366
-0.681,0.788,0.104,4.329,-16.28,1.89
-0.68,0.811,0.09,2.683,-16.768,3.963
-0.664,0.825,0.083,0.793,-17.012,5.549
-0.629,0.837,0.069,-1.463,-16.28,6.89
-0.597,0.855,0.066,-4.512,-15.244,6.89
-0.566,0.857,0.082,-6.829,-14.39,6.159
-0.542,0.832,0.097,-7.683,-12.439,5.061
-0.513,0.8,0.107,-7.378,-10.061,3.171
-0.492,0.775,0.121,-6.646,-7.622,0.854
-0.508,0.76,0.125,-5.915,-5.854,-1.037
-0.542,0.754,0.131,-5.488,-5.488,-1.951
-0.57,0.754,0.138,-4.39,-5.732,-2.5
-0.594,0.744,0.143,-2.988,-6.463,-2.622
-0.623,0.744,0.151,-1.524,-8.72,-2.195
-0.658,0.746,0.148,0.244,-11.341,-0.488
-0.676,0.762,0.12,0.732,-13.537,1.768
-0.666,0.779,0.11,0.976,-15.793,2.866
-0.656,0.789,0.104,0.854,-17.439,3.78
-0.637,0.789,0.108,0.915,-18.72,4.207
-0.601,0.784,0.12,1.341,-19.268,3.476
-0.574,0.778,0.135,1.829,-19.146,2.439
-0.567,0.769,0.148,2.561,-20.366,0.976
-0.571,0.759,0.158,3.78,-23.11,-0.549
-0.574,0.752,0.173,5.061,-25.427,-2.012
-0.576,0.744,0.186,7.317,-26.829,-3.049
-0.586,0.739,0.181,10.0,-26.22,-2.927
-0.613,0.749,0.129,11.28,-22.012,-0.793
-0.623,0.781,0.081,9.207,-18.11,0.366
-0.608,0.803,0.063,6.707,-16.463,0.244
-0.618,0.817,0.07,3.72,-15.732,1.89
-0.622,0.817,0.085,1.646,-16.037,3.293
-0.593,0.805,0.113,1.646,-16.951,3.11
-0.559,0.79,0.145,2.073,-17.073,1.89
-0.543,0.773,0.166,2.561,-16.951,1.037
-0.548,0.766,0.181,3.659,-17.195,0.61
-0.561,0.762,0.191,5.0,-17.988,-0.061
-0.568,0.752,0.197,6.89,-18.476,-0.549
-0.585,0.75,0.179,8.293,-17.622,0.427
-0.605,0.773,0.142,7.927,-16.28,2.195
-0.612,0.804,0.095,6.463,-15.244,3.659
-0.602,0.827,0.063,3.476,-14.329,4.939
-0.586,0.845,0.066,0.0,-13.72,5.549
-0.57,0.843,0.09,-2.256,-13.232,5.854
-0.552,0.83,0.115,-3.232,-12.073,5.732
-0.535,0.807,0.14,-3.598,-10.488,4.756
-0.535,0.794,0.157,-3.78,-9.329,3.963
-0.535,0.797,0.159,-3.78,-8.476,2.988
-0.516,0.79,0.174,-3.293,-6.768,1.159
-0.517,0.77,0.182,-2.256,-5.671,-0.366
-0.536,0.759,0.181,-1.28,-6.341,-1.159
-0.555,0.758,0.18,-0.305,-7.866,-1.951
-0.561,0.752,0.186,1.341,-9.512,-2.683
-0.566,0.743,0.189,3.415,-10.854,-3.11
-0.566,0.744,0.179,4.634,-10.61,-2.744
-0.572,0.749,0.175,5.427,-10.0,-2.927
-0.579,0.741,0.186,7.256,-11.22,-3.78
-0.581,0.733,0.188,9.268,-14.329,-4.573
-0.59,0.742,0.169,10.427,-15.793,-3.72
-0.597,0.755,0.16,10.549,-15.244,-2.317
-0.585,0.763,0.14,10.366,-14.695,-2.195
-0.575,0.775,0.131,9.939,-13.598,-2.317
-0.568,0.791,0.13,8.902,-12.378,-1.829
-0.567,0.793,0.145,7.805,-11.037,-1.585
-0.574,0.783,0.156,7.927,-10.488,-1.585
-0.583,0.774,0.157,7.927,-10.549,-1.646
-0.584,0.78,0.145,7.622,-11.037,-1.402
-0.58,0.792,0.136,7.012,-12.256,-1.646
-0.564,0.801,0.134,6.646,-12.744,-1.89
-0.546,0.788,0.131,5.671,-9.939,-1.159
-0.559,0.773,0.14,5.122,-8.476,-0.549
-0.579,0.783,0.15,5.732,-8.354,-0.244
-0.549,0.797,0.164,5.427,-7.195,-0.854
-0.528,0.792,0.166,5.061,-5.732,-1.341
-0.534,0.794,0.171,5.305,-5.305,-1.951
-0.527,0.791,0.181,5.854,-5.366,-3.049
-0.525,0.781,0.185,6.585,-5.122,-3.841
-0.538,0.779,0.177,7.378,-4.756,-3.78
-0.554,0.785,0.155,7.256,-4.207,-3.415
-0.561,0.788,0.158,6.89,-4.695,-3.78
-0.582,0.781,0.164,7.561,-5.549,-3.72
-0.589,0.778,0.168,7.439,-7.439,-3.537
-0.603,0.771,0.162,7.805,-10.61,-3.171
-0.606,0.785,0.152,8.11,-12.195,-2.256
-0.581,0.81,0.152,7.5,-10.244,-1.341
-0.56,0.814,0.155,6.768,-6.829,-0.549
-0.567,0.813,0.146,5.793,-5.0,0.366
-0.582,0.814,0.146,5.0,-4.878,1.22
-0.573,0.814,0.143,3.659,-4.756,1.89
-0.569,0.813,0.136,2.073,-4.878,1.89
-0.567,0.812,0.139,0.61,-6.22,1.402
-0.571,0.806,0.142,-0.427,-7.866,0.915
-0.569,0.802,0.152,-1.098,-9.024,0.732
-0.563,0.798,0.151,-1.585,-8.354,0.854
-0.558,0.795,0.161,-2.134,-5.915,0.854
-0.548,0.787,0.175,-1.524,-3.415,0.061
-0.549,0.782,0.185,-0.793,-1.646,-0.122
-0.566,0.782,0.186,-0.427,-1.463,-0.061
-0.579,0.783,0.184,0.122,-3.232,-0.244
-0.573,0.782,0.182,0.732,-5.732,-0.793
-0.57,0.782,0.183,1.341,-8.11,-1.402
-0.573,0.782,0.18,1.829,-9.451,-1.159
-0.574,0.79,0.174,1.768,-10.244,-1.098
-0.57,0.79,0.177,1.951,-10.976,-1.402
-0.571,0.785,0.183,2.317,-12.378,-1.707
-0.579,0.778,0.183,2.683,-15.244,-1.768
-0.586,0.777,0.187,2.988,-18.659,-1.707
